timestamp,Thigh_L_Acc_X,Thigh_L_Acc_Y,Thigh_L_Acc_Z,Thigh_L_Gyr_X,Thigh_L_Gyr_Y,Thigh_L_Gyr_Z,Thigh_R_Acc_X,Thigh_R_Acc_Y,Thigh_R_Acc_Z,Thigh_R_Gyr_X,Thigh_R_Gyr_Y,Thigh_R_Gyr_Z,gpio_output
10.000000476837158,-8.420407238769531,0.2753331909179687,-0.34715924072265625,-5.038167938931298,58.3206106870229,1.9083969465648856,-11.669338891601562,-0.565031591796875,3.0526071166992184,-32.38167938931298,-52.732824427480914,8.82442748091603,0.0
10.010000467300415,-9.89523546142578,1.1611878051757811,0.2753331909179687,-2.1374045801526718,60.76335877862596,-0.44274809160305345,-12.586318127441405,-0.5578489868164063,4.510675927734375,-24.519083969465647,-57.16030534351145,7.877862595419847,1.0
10.020000696182251,-10.220846887207031,1.5634136840820312,1.189918225097656,-8.82442748091603,58.76335877862596,-2.2290076335877864,-8.40843623046875,2.2098481323242187,1.7310078002929687,-36.76335877862596,-68.90076335877863,0.13740458015267176,1.0
10.030000925064087,-11.954248889160155,3.375824340820312,1.9033903198242186,-23.31297709923664,54.51908396946565,-2.717557251908397,-9.363722692871093,0.7302315063476562,1.2952630981445312,-44.10687022900763,-64.01526717557252,1.7404580152671756,1.0
10.040000677108765,-10.613495959472656,3.1747114013671873,2.0661960327148434,-38.35114503816794,45.587786259541986,-1.786259541984733,-9.648632690429688,1.2904746948242187,0.8403647827148437,-37.70992366412214,-67.16030534351145,0.183206106870229,1.0
10.050000429153442,-11.482591162109374,3.284844677734375,2.3630770385742186,-51.45038167938932,38.458015267175576,-0.9312977099236641,-8.13310303955078,3.3638533325195312,0.34237083740234375,-50.51908396946565,-65.0381679389313,-0.9007633587786259,1.0
10.060000658035278,-11.29344923095703,3.2920272827148436,2.4253262817382812,-65.90839694656489,31.480916030534353,0.549618320610687,-9.404424121093749,0.928950244140625,1.0366893188476562,-51.06870229007634,-55.465648854961835,1.618320610687023,1.0
10.070000648498535,-10.376469995117187,0.8762778076171874,1.2856862915039062,-67.14503816793894,24.916030534351144,2.0,-9.557653027343749,-0.2537853759765625,1.1851298217773436,-35.57251908396947,-61.89312977099237,0.8091603053435115,1.0
10.080000638961792,-9.751583361816406,1.0941501586914062,1.0821791503906248,-67.86259541984732,19.221374045801525,0.6412213740458015,-8.315062365722655,2.3870190551757813,-0.3016694091796875,-43.038167938931295,-63.02290076335878,-2.1526717557251906,1.0
10.090000629425049,-9.421183532714844,0.03591302490234375,1.6807295654296874,-60.62595419847328,20.702290076335878,2.3053435114503817,-9.198522778320312,2.138022082519531,-0.15562310791015624,-53.083969465648856,-47.465648854961835,0.3816793893129771,1.0
10.100000619888306,-10.663774194335938,0.6943184814453125,2.0159177978515626,-59.66412213740458,16.18320610687023,1.4809160305343512,-11.283872424316405,-0.8714894042968749,0.51714755859375,-40.030534351145036,-44.58015267175573,3.312977099236641,1.0
10.110000371932983,-10.072406384277343,-1.1707646118164061,1.2330138549804688,-44.778625954198475,12.992366412213741,3.435114503816794,-10.326191760253906,0.6703764648437499,0.033518823242187495,-24.80916030534351,-50.656488549618324,0.9618320610687023,1.0
10.120000839233398,-8.532934716796875,-2.528276953125,1.149216796875,-18.763358778625953,17.297709923664122,4.885496183206107,-8.82263311767578,3.5817256835937497,-0.8379705810546875,-41.31297709923664,-45.61832061068702,-3.7404580152671754,1.0
10.130000829696655,-8.980650427246093,0.00239420166015625,1.4891934326171874,-6.488549618320611,21.572519083969464,1.9694656488549618,-9.18655177001953,2.375048046875,-1.120486376953125,-56.732824427480914,-31.51145038167939,-2.4122137404580153,1.0
10.140000581741333,-11.008539233398437,2.8227637573242186,2.2840683837890623,-12.0,20.793893129770993,-0.8091603053435115,-9.821015209960937,0.5267243652343749,-0.16759411621093748,-58.50381679389313,-22.68702290076336,-1.0381679389312977,1.0
10.150000810623169,-9.133879333496093,0.09576806640624999,1.0965443603515623,-11.541984732824428,13.755725190839694,2.2290076335877864,-9.4618849609375,0.42377369384765623,-0.5602431884765625,-47.267175572519086,-24.778625954198475,-3.9389312977099236,1.0
10.160000562667847,-9.878476049804688,1.254561669921875,2.0183119995117185,-4.183206106870229,15.282442748091603,0.48854961832061067,-10.955866796875,-1.6927005737304686,1.2665326782226562,-37.63358778625954,-18.15267175572519,-4.290076335877862,1.0
10.170000791549683,-10.40041201171875,1.8004396484374998,1.3192051147460937,-20.83969465648855,3.404580152671756,0.6870229007633588,-9.926360083007811,-2.269703173828125,1.467645617675781,-17.404580152671755,-26.3206106870229,-8.213740458015268,1.0
10.180000305175781,-9.797073193359374,0.20829554443359374,0.7948749511718749,-7.893129770992366,6.030534351145038,3.7251908396946565,-10.098742602539062,-1.7357962036132812,1.6208745239257811,1.1450381679389312,-30.198473282442748,-10.106870229007633,1.0
10.190000534057617,-9.095572106933593,0.5051765502929687,1.0295067138671874,-3.786259541984733,8.0,1.251908396946565,-8.346186987304687,0.39743747558593745,0.32561142578124996,8.65648854961832,-35.81679389312977,-15.450381679389313,1.0
10.200000762939453,-9.217676391601563,1.7501614135742187,0.9265560424804687,-7.801526717557252,8.51908396946565,-0.7938931297709924,-6.864176159667968,1.886630908203125,0.27293898925781246,-7.129770992366412,-26.763358778625953,-17.709923664122137,1.0
10.21000051498413,-9.457096557617186,2.360682836914062,0.9792284790039062,-15.526717557251908,8.213740458015268,0.32061068702290074,-7.867346655273437,1.3862427612304686,0.3495534423828125,-11.86259541984733,-17.099236641221374,-14.687022900763358,0.0
10.220000505447388,-9.9215716796875,2.5043349365234375,1.0438719238281249,-22.595419847328245,7.1603053435114505,-0.0916030534351145,-9.04050546875,0.49320554199218747,0.9959878906249999,-7.32824427480916,-10.13740458015267,-11.770992366412214,0.0
10.230000257492065,-9.866505041503906,1.3742717529296875,0.5817910034179687,-24.16793893129771,6.106870229007634,0.5038167938931297,-9.394847314453125,-0.5410895751953124,1.9536685546875,1.099236641221374,-8.961832061068701,-11.83206106870229,0.0
10.240000486373901,-10.462661254882812,1.158793603515625,0.5793968017578125,-26.793893129770993,6.1679389312977095,-0.42748091603053434,-9.275137231445312,-0.5578489868164063,1.5107412475585937,14.931297709923664,-15.038167938931299,-13.893129770992367,0.0
10.250000476837158,-9.854534033203125,0.5123591552734374,0.4285620971679687,-22.35114503816794,7.9541984732824424,-0.5801526717557252,-9.639055883789062,-2.6096798095703124,2.683900061035156,29.114503816793892,-17.022900763358777,-15.374045801526718,0.0
10.260000705718994,-9.658209497070311,0.34715924072265625,0.354341845703125,-21.72519083969466,8.916030534351146,-1.633587786259542,-10.364498986816406,-2.2098481323242187,2.767697119140625,48.13740458015267,-23.541984732824428,-15.923664122137405,0.0
10.270000696182251,-9.610325463867188,0.1771709228515625,0.39264907226562495,-17.206106870229007,10.045801526717558,-3.267175572519084,-9.548076220703125,-0.7134720947265625,2.4875755249023435,55.98473282442748,-29.46564885496183,-18.580152671755727,0.0
10.280000925064087,-9.421183532714844,0.5147533569335937,0.5482721801757812,-15.206106870229007,11.49618320610687,-3.9083969465648853,-6.835445739746094,2.418143676757812,1.4772224243164063,40.36641221374046,-27.587786259541986,-21.6793893129771,0.0
10.290000915527344,-8.987833032226561,0.2346317626953125,0.612915625,-11.572519083969466,14.13740458015267,-3.312977099236641,-8.724470849609375,1.8914193115234375,1.7860744384765623,21.801526717557252,-14.01526717557252,-18.30534351145038,0.0
10.300000667572021,-9.4618849609375,2.559401574707031,0.39264907226562495,-15.282442748091603,10.534351145038167,-4.763358778625954,-8.774749084472656,1.3670891479492187,2.2194249389648437,12.030534351145038,-7.801526717557252,-14.595419847328245,0.0
10.310000658035278,-10.649408984374999,2.4061726684570313,0.8188169677734375,-15.98473282442748,13.17557251908397,-4.320610687022901,-10.498574279785156,-0.6847416748046875,3.469198205566406,24.458015267175572,-7.740458015267175,-11.145038167938932,0.0
10.320000648498535,-10.319009155273436,1.3527239379882812,0.47644613037109373,-17.51145038167939,11.297709923664122,-3.49618320610687,-9.150638745117186,-0.10295067138671875,3.019088293457031,34.29007633587786,-16.870229007633586,-13.32824427480916,0.0
10.330000638961792,-9.952696301269532,0.36631285400390623,0.13646949462890623,-13.145038167938932,11.618320610687023,-1.618320610687023,-9.928754284667969,-0.6584054565429687,3.8043864379882812,44.42748091603053,-20.870229007633586,-13.206106870229007,0.0
10.340000629425049,-9.478644372558593,0.19153613281249998,0.16041151123046873,-8.213740458015268,13.816793893129772,-2.5343511450381677,-9.10993731689453,1.3096283081054687,3.308786694335937,43.66412213740458,-24.549618320610687,-15.114503816793894,0.0
10.350000619888306,-9.275137231445312,0.9121908325195311,0.47884033203125,-7.190839694656488,16.15267175572519,-2.6259541984732824,-8.070853796386718,3.497928625488281,2.8993782104492185,25.328244274809162,-18.610687022900763,-14.534351145038167,0.0
10.360000610351562,-9.253589416503905,1.13006318359375,0.7805097412109374,-9.664122137404581,16.12213740458015,-2.0,-7.4028715332031245,3.294421484375,1.9009961181640624,5.145038167938932,-14.458015267175572,-11.49618320610687,0.0
10.370000839233398,-7.362170104980469,-1.70467158203125,0.21068974609375,3.6793893129770994,19.435114503816795,-0.13740458015267176,-8.544905725097657,1.659181750488281,3.4428619873046875,-9.083969465648854,-4.0,-7.282442748091603,0.0
10.380000591278076,-9.2320416015625,-0.9002198242187499,0.45968671875,15.282442748091603,26.48854961832061,-3.8625954198473282,-8.882488159179687,1.2952630981445312,3.564966271972656,-4.442748091603053,-6.137404580152672,-6.793893129770993,0.0
10.390000820159912,-9.710881933593749,-0.26815058593749996,0.74699091796875,22.68702290076336,28.16793893129771,-6.99236641221374,-8.877699755859375,1.1109095703125,3.5386300537109374,-6.198473282442748,-5.511450381679389,-6.748091603053435,0.0
10.40000033378601,-9.394847314453125,0.5865794067382812,0.8882488159179687,26.885496183206108,28.045801526717558,-7.893129770992366,-9.382876306152344,0.622492431640625,3.737348791503906,-7.893129770992366,-4.5038167938931295,-6.519083969465649,0.0
10.410000801086426,-9.437942944335937,1.4796166259765624,1.3479355346679687,23.267175572519083,26.732824427480917,-9.679389312977099,-9.516951599121093,0.4740519287109375,3.7804444213867185,-8.80916030534351,-5.679389312977099,-6.1679389312977095,0.0
10.420000314712524,-10.350133776855468,2.5713725830078125,2.0781670410156248,16.625954198473284,26.15267175572519,-9.893129770992367,-9.440337145996093,0.09337386474609374,3.746925598144531,-9.007633587786259,-6.213740458015267,-5.893129770992366,0.0
10.43000054359436,-10.450690246582031,2.384624853515625,1.458068811035156,5.7251908396946565,17.709923664122137,-7.374045801526718,-10.314220751953124,-0.7445967163085937,3.469198205566406,-1.0534351145038168,-9.465648854961833,-5.312977099236641,0.0
10.440000534057617,-10.103531005859374,1.419761584472656,1.1228805786132812,3.312977099236641,14.366412213740459,-4.8396946564885495,-9.212887988281249,-1.0175357055664063,3.411737365722656,7.236641221374046,-15.450381679389313,-6.9465648854961835,0.0
10.450000524520874,-10.709264025878905,2.0159177978515626,1.3144167114257812,2.366412213740458,14.641221374045802,-5.6183206106870225,-10.036493359375,-1.5490484741210937,3.392583752441406,17.358778625954198,-18.82442748091603,-7.32824427480916,0.0
10.46000051498413,-10.721235034179687,1.5538368774414062,1.3120225097656248,7.0534351145038165,17.938931297709924,-6.229007633587786,-8.877699755859375,-1.0175357055664063,3.1675287963867187,25.17557251908397,-24.412213740458014,-9.98473282442748,0.0
10.470000505447388,-10.072406384277343,2.0925322509765625,1.5442600708007812,8.305343511450381,20.564885496183205,-7.6183206106870225,-7.445967163085937,1.7334020019531249,2.176329309082031,10.229007633587786,-20.366412213740457,-14.534351145038167,0.0
10.480000734329224,-8.59997236328125,0.8355763793945312,1.0989385620117187,5.206106870229007,18.946564885496183,-5.267175572519084,-7.898471276855468,0.5722141967773438,2.3487118286132813,-6.5038167938931295,-9.465648854961833,-12.610687022900763,0.0
10.490000486373901,-9.354145886230468,1.5346832641601562,1.7525556152343749,6.641221374045801,21.328244274809162,-6.793893129770993,-9.004592443847656,-0.6919242797851562,3.0310593017578125,-5.435114503816794,-4.977099236641221,-10.045801526717558,0.0
10.500000476837158,-10.474632263183594,1.668758557128906,1.707065783691406,4.366412213740458,20.27480916030534,-8.045801526717558,-8.604760766601562,-0.2442085693359375,3.239354846191406,-2.2900763358778624,-5.099236641221374,-11.725190839694656,0.0
10.510000467300415,-10.93671318359375,0.852335791015625,1.1851298217773436,6.427480916030534,18.80916030534351,-7.893129770992366,-8.686163623046875,-0.8499415893554687,3.2704794677734372,0.9618320610687023,-4.015267175572519,-12.488549618320612,0.0
10.52000093460083,-8.923189587402343,0.22505495605468748,0.9576806640625,14.732824427480915,19.984732824427482,-8.0,-8.623914379882812,-1.4891934326171874,3.342305517578125,6.137404580152672,-4.351145038167939,-12.717557251908397,0.0
10.530000448226929,-10.026916552734374,0.9169792358398436,0.737414111328125,14.900763358778626,20.53435114503817,-9.19083969465649,-8.544905725097657,-1.3287819213867187,3.1651345947265623,11.770992366412214,-4.625954198473282,-12.916030534351146,0.0
10.540000677108765,-10.62307276611328,1.5682020874023437,1.6472107421875,12.198473282442748,23.450381679389313,-10.396946564885496,-8.288726147460936,-1.22583125,3.047818713378906,16.671755725190838,-4.1679389312977095,-13.526717557251908,0.0
10.550000667572021,-9.217676391601563,1.0414777221679687,1.467645617675781,7.9541984732824424,19.984732824427482,-9.145038167938932,-8.346186987304687,-1.199495031738281,3.0358477050781247,22.68702290076336,-2.6106870229007635,-13.587786259541986,0.0
10.560000658035278,-8.456320263671875,0.07900865478515624,0.9504980590820312,12.091603053435115,18.641221374045802,-8.65648854961832,-8.195352282714843,-1.1252747802734375,2.9472622436523435,28.091603053435115,-1.3740458015267176,-14.106870229007633,0.0
10.570000648498535,-9.052476477050782,0.9050082275390624,1.3862427612304686,15.419847328244275,21.053435114503817,-11.648854961832061,-8.157045056152343,-0.8307879760742187,2.7437551025390623,32.656488549618324,-0.6870229007633588,-14.732824427480915,0.0
10.580000638961792,-9.765948571777344,0.7110778930664062,1.7717092285156248,14.244274809160306,19.31297709923664,-12.213740458015268,-8.010998754882811,-0.0526724365234375,2.3319524169921872,33.587786259541986,1.083969465648855,-15.648854961832061,0.0
10.590000629425049,-9.823409411621093,0.49799394531249996,1.7932570434570312,16.15267175572519,20.458015267175572,-12.625954198473282,-9.026140258789061,-1.180341418457031,2.8467057739257813,30.83969465648855,9.404580152671755,-13.740458015267176,0.0
10.600000381469727,-10.261548315429687,0.47165772705078124,1.8243816650390623,15.374045801526718,19.755725190839694,-12.946564885496183,-8.453926062011718,-0.8738836059570312,3.4069489624023435,34.213740458015266,11.099236641221374,-15.022900763358779,0.0
10.610000610351562,-10.639832177734375,0.7062894897460937,1.7453730102539062,15.908396946564885,18.137404580152673,-13.83206106870229,-8.358157995605469,-0.7661445312499999,2.8036101440429686,42.97709923664122,6.870229007633588,-16.900763358778626,0.0
10.62000060081482,-10.47702646484375,0.21787235107421873,1.917755529785156,19.34351145038168,16.076335877862597,-13.282442748091603,-7.302315063476562,0.5578489868164063,2.7246014892578123,37.587786259541986,10.290076335877863,-18.916030534351144,0.0
10.630000829696655,-10.726023437499999,0.8499415893554687,2.31758720703125,18.53435114503817,15.358778625954198,-13.48091603053435,-7.287949853515625,0.5530605834960938,2.7724855224609373,34.656488549618324,13.404580152671755,-18.900763358778626,0.0
10.640000581741333,-10.352527978515624,0.6871358764648438,2.427720483398437,18.33587786259542,11.572519083969466,-13.633587786259541,-7.230489013671875,0.6967126831054687,2.602497204589844,32.85496183206107,13.725190839694656,-18.259541984732824,0.0
10.65000057220459,-8.769960681152343,0.8116343627929687,1.9800047729492187,17.541984732824428,6.717557251908397,-14.366412213740459,-8.054094384765625,1.6807295654296874,3.612850305175781,24.091603053435115,19.69465648854962,-17.770992366412212,0.0
10.660000324249268,-10.78348427734375,0.9504980590820312,2.7174188842773437,14.580152671755725,6.106870229007634,-15.679389312977099,-6.361393811035156,2.5857377929687497,2.059013427734375,8.13740458015267,20.015267175572518,-18.106870229007633,0.0
10.670000791549683,-8.482656481933594,0.6416460449218749,2.4971523315429685,17.34351145038168,1.7251908396946565,-14.366412213740459,-5.738901379394531,3.258508459472656,0.814028564453125,-14.030534351145038,31.236641221374047,-17.14503816793893,0.0
10.68000054359436,-11.037269653320312,1.1228805786132812,3.5386300537109374,15.221374045801527,0.8244274809160306,-16.53435114503817,-7.249642626953125,0.7206546997070312,0.33518823242187495,-21.740458015267176,45.725190839694655,-11.114503816793894,0.0
10.690000534057617,-9.045293872070312,-0.40940848388671874,2.8993782104492185,18.442748091603054,-8.427480916030534,-14.961832061068701,-8.453926062011718,-1.005564697265625,-0.16280571289062498,-3.1908396946564888,44.25954198473283,-5.648854961832061,0.0
10.700000524520874,-10.041281762695311,0.8714894042968749,4.204218115234375,23.96946564885496,-10.702290076335878,-17.206106870229007,-5.935225915527344,1.37906015625,-1.4820108276367188,-3.3893129770992365,45.3587786259542,-8.854961832061068,0.0
10.71000051498413,-10.93671318359375,1.177947216796875,4.709394665527343,10.51908396946565,-20.82442748091603,-15.923664122137405,-7.764395983886718,-1.0223241088867188,0.05985504150390625,-10.534351145038167,59.16030534351145,-5.114503816793893,0.0
10.720000505447388,-10.541669909667968,-0.5410895751953124,5.142745166015625,13.17557251908397,-28.641221374045802,-13.603053435114504,-10.441113439941406,-1.9967641845703124,2.3295582153320313,3.4198473282442747,54.42748091603053,-4.152671755725191,0.0
10.730000495910645,-10.687716210937499,-0.5889736083984375,5.015852478027344,16.916030534351144,-39.3587786259542,-14.427480916030534,-11.712434521484374,1.4437036010742186,4.939238024902344,-9.86259541984733,50.916030534351144,-14.412213740458014,0.0
10.740000486373901,-11.145008728027342,-0.45489831542968745,5.588066674804687,29.709923664122137,-42.99236641221374,-15.32824427480916,-15.746664318847655,-2.35589443359375,8.149862451171874,-26.15267175572519,54.44274809160305,-18.85496183206107,0.0
10.750000476837158,-10.575188732910156,-0.6751648681640625,5.118803149414062,22.80916030534351,-58.51908396946565,-18.671755725190838,-18.64364832763672,-6.150704064941406,7.414842541503906,-9.954198473282442,37.465648854961835,-25.16030534351145,0.0
10.760000944137573,-12.732364428710937,0.36152445068359373,5.925649108886718,18.763358778625953,-72.09160305343511,-22.137404580152673,-16.3571857421875,-6.335057592773437,3.2130186279296873,9.34351145038168,19.267175572519083,-29.984732824427482,0.0
10.770000696182251,-13.761871142578125,1.1516109985351561,6.296750366210937,12.106870229007633,-89.26717557251908,-22.50381679389313,-14.228740466308594,-5.298368273925781,1.9800047729492187,33.45038167938932,12.67175572519084,-25.6793893129771,0.0
10.780000925064087,-14.188039038085936,0.18914193115234373,6.4356140625,10.183206106870228,-107.57251908396947,-19.66412213740458,-11.664550488281249,-1.7118541870117185,0.8451531860351562,55.57251908396947,0.6412213740458015,-20.641221374045802,0.0
10.790000438690186,-14.654908361816405,-0.8283937744140625,5.779602807617187,16.12213740458015,-123.09923664122137,-17.557251908396946,-8.674192614746094,-0.13168109130859373,3.2225954345703123,63.12977099236641,-1.83206106870229,-16.106870229007633,0.0
10.800000667572021,-15.471331127929687,-2.2553379638671873,4.848258361816406,20.80916030534351,-137.57251908396947,-17.755725190839694,-7.505822204589843,4.244919543457031,0.6607996582031249,50.67175572519084,-2.9160305343511452,-16.763358778625953,0.0
10.810000658035278,-15.931017846679687,-2.920926025390625,3.2321722412109373,25.450381679389313,-148.91603053435114,-18.35114503816794,-7.941566906738281,2.6096798095703124,0.8212111694335937,29.87786259541985,9.511450381679388,-9.450381679389313,0.0
10.820000648498535,-15.646107849121092,-3.7325603881835936,2.3223756103515623,28.778625954198475,-155.81679389312978,-19.740458015267176,-8.061276989746093,1.467645617675781,0.43574470214843747,19.374045801526716,12.381679389312977,-6.061068702290076,0.0
10.830000400543213,-15.667655664062499,-2.530671154785156,0.38307226562499996,32.595419847328245,-160.99236641221373,-20.03053435114504,-9.414000927734374,-0.37828386230468747,0.11731588134765625,16.442748091603054,16.519083969465647,-4.427480916030534,0.0
10.840000629425049,-13.958195678710936,-1.8315642700195311,0.18435352783203124,39.465648854961835,-160.35114503816794,-16.610687022900763,-9.995791931152343,-1.8650830932617186,-0.086191259765625,20.290076335877863,19.83206106870229,-4.748091603053435,0.0
10.850000381469727,-12.272677709960936,-1.6112977172851561,-0.08140285644531249,45.221374045801525,-160.19847328244273,-11.816793893129772,-10.237606298828124,-2.4971523315429685,-0.086191259765625,28.213740458015266,22.137404580152673,-6.793893129770993,0.0
10.860000610351562,-11.540052001953125,-0.8475473876953125,0.33039982910156246,54.458015267175576,-153.89312977099237,-4.9465648854961835,-10.129867224121092,-2.0566192260742184,-0.1197100830078125,33.725190839694655,24.50381679389313,-8.687022900763358,0.0
10.87000036239624,-9.488221179199218,0.29927520751953124,-0.5482721801757812,56.80916030534351,-148.51908396946564,0.10687022900763359,-9.792284790039062,-0.15322890625,0.5674257934570313,28.3206106870229,31.740458015267176,-10.305343511450381,0.0
10.880000591278076,-8.339004382324218,0.7972691528320313,-1.3742717529296875,48.48854961832061,-142.8091603053435,2.3206106870229006,-9.150638745117186,-0.7733271362304687,0.12449848632812499,24.229007633587788,32.35114503816794,-8.702290076335878,0.0
10.890000820159912,-7.769184387207031,-0.5793968017578125,-2.418143676757812,42.213740458015266,-135.23664122137404,1.9083969465648856,-9.337386474609374,0.3591302490234375,0.316034619140625,20.48854961832061,32.717557251908396,-7.32824427480916,0.0
10.90000057220459,-6.785167504882812,0.28490999755859375,-3.5242648437499997,38.68702290076336,-121.31297709923665,0.366412213740458,-9.337386474609374,1.1420341918945311,0.3447650390625,6.6106870229007635,38.44274809160305,-5.969465648854962,0.0
10.910000801086426,-7.3837179199218745,0.1771709228515625,-3.1507693847656246,30.427480916030536,-107.31297709923665,-1.3893129770992367,-11.073182678222656,-1.3000515014648437,1.3455413330078123,2.900763358778626,42.412213740458014,0.24427480916030533,0.0
10.920000314712524,-7.113173132324218,0.05027823486328125,-2.5570073730468748,28.53435114503817,-91.80152671755725,-3.3740458015267176,-11.281478222656249,-2.2194249389648437,1.4437036010742186,6.076335877862595,37.14503816793893,1.9694656488549618,0.0
10.93000078201294,-7.3549875,0.39264907226562495,-1.695094775390625,30.30534351145038,-76.21374045801527,-3.404580152671756,-11.240776794433593,-2.5378537597656248,1.5155296508789062,9.893129770992367,32.87022900763359,0.9007633587786259,0.0
10.940000534057617,-8.250418920898436,1.216254443359375,-0.4908113403320312,23.69465648854962,-61.12977099236641,-3.236641221374046,-11.310208642578125,-2.4660277099609376,1.3383587280273437,21.984732824427482,24.870229007633586,-0.5038167938931297,0.0
10.950000286102295,-7.7979148071289055,1.707065783691406,-0.24181436767578124,18.48854961832061,-49.48091603053435,-0.8549618320610687,-8.769960681152343,0.24660277099609373,-0.033518823242187495,13.083969465648854,18.549618320610687,-2.687022900763359,0.0
10.96000051498413,-7.115567333984375,1.4101847778320311,-0.14125789794921875,7.404580152671755,-38.916030534351144,5.450381679389313,-9.643844287109374,0.4955997436523437,-1.659181750488281,-1.3740458015267176,23.893129770992367,1.7557251908396947,0.0
10.970000505447388,-6.928819604492187,1.9680337646484374,0.11731588134765625,-0.6106870229007634,-27.450381679389313,9.587786259541986,-6.612784985351562,3.517082238769531,-1.656787548828125,-40.76335877862596,37.541984732824424,4.244274809160306,0.0
10.980000495910645,-6.60799658203125,0.3591302490234375,-0.28490999755859375,-11.740458015267176,-20.717557251908396,13.969465648854962,-7.144297753906249,2.379836450195312,-1.0295067138671874,-59.41984732824427,49.29770992366412,9.664122137404581,0.0
10.990000486373901,-4.331110803222656,-2.039859814453125,-1.149216796875,-8.458015267175572,-11.603053435114504,17.00763358778626,-8.920795385742187,1.1013327636718748,0.1005564697265625,-63.48091603053435,55.282442748091604,14.427480916030534,0.0
11.000000476837158,-5.130774157714844,-1.2234370483398436,-0.7517793212890624,-4.351145038167939,2.50381679389313,15.19083969465649,-9.821015209960937,-0.8786720092773437,1.4963760375976562,-71.57251908396947,64.87022900763358,16.137404580152673,0.0
11.010000705718994,-6.45476767578125,-0.2753331909179687,0.0430956298828125,-9.389312977099237,12.213740458015268,12.961832061068701,-10.939107385253905,-3.69664736328125,1.3048399047851562,-50.38167938931298,58.58015267175573,19.16030534351145,0.0
11.02000093460083,-5.442020373535156,-1.3407529296874998,-0.19393033447265623,-8.641221374045802,17.374045801526716,11.725190839694656,-10.831368310546875,-3.6272155151367187,2.0374656127929685,-37.221374045801525,56.656488549618324,18.50381679389313,0.0
11.030000686645508,-6.0333881835937495,-0.9911994873046874,0.22266075439453123,5.770992366412214,34.25954198473283,11.969465648854962,-11.322179650878905,-5.374982727050781,1.8219874633789062,-13.19083969465649,48.76335877862596,19.404580152671755,0.0
11.040000677108765,-6.739677673339843,-0.48123453369140623,0.7254431030273437,6.427480916030534,44.42748091603053,7.114503816793893,-11.710040319824218,-6.287173559570312,1.8219874633789062,27.31297709923664,34.56488549618321,17.984732824427482,0.0
11.050000667572021,-4.299986181640625,-0.7062894897460937,-0.2920926025390625,9.297709923664122,49.343511450381676,7.236641221374046,-10.570400329589843,-2.442085693359375,1.1468225952148436,34.25954198473283,28.68702290076336,12.16793893129771,0.0
11.060000658035278,-5.446808776855469,-0.0909796630859375,0.39264907226562495,5.435114503816794,63.02290076335878,6.99236641221374,-9.655815295410155,-1.1827356201171875,1.1420341918945311,26.35114503816794,31.541984732824428,12.091603053435115,0.0
11.070000648498535,-5.540182641601562,0.5985504150390625,1.0031704956054688,0.2900763358778626,72.3206106870229,4.732824427480916,-10.28549033203125,-2.1595698974609374,0.86191259765625,33.63358778625954,29.404580152671755,15.068702290076336,0.0
11.080000638961792,-6.023811376953125,0.27293898925781246,1.5729904907226562,-4.580152671755725,79.06870229007633,2.732824427480916,-11.066000073242186,-1.656787548828125,1.7310078002929687,36.030534351145036,32.412213740458014,16.396946564885496,0.0
11.090000629425049,-5.872976672363281,0.00718260498046875,2.042254016113281,-4.870229007633588,87.96946564885496,2.6106870229007635,-9.667786303710937,0.1005564697265625,1.7860744384765623,34.18320610687023,30.641221374045802,13.969465648854962,0.0
11.100000619888306,-6.792350109863281,0.5530605834960938,3.0238766967773434,-10.13740458015267,92.80916030534351,0.8549618320610687,-8.949525805664061,1.1372457885742187,1.3670891479492187,24.870229007633586,30.33587786259542,13.770992366412214,0.0
11.110000610351562,-7.802703210449218,0.14125789794921875,4.390965844726562,-14.549618320610687,96.06106870229007,2.4427480916030535,-9.627084875488281,-0.40940848388671874,1.675941162109375,19.00763358778626,32.396946564885496,17.114503816793892,0.0
11.12000060081482,-8.585607153320312,0.02154781494140625,5.992686755371094,-12.213740458015268,98.94656488549619,5.435114503816794,-9.763554370117188,-0.8906430175781249,2.281674182128906,19.068702290076335,33.20610687022901,18.9618320610687,0.0
11.130000352859497,-9.102754711914063,0.2059013427734375,7.6997525390625,-8.122137404580153,98.2442748091603,9.206106870229007,-8.453926062011718,0.3184288208007812,1.5705962890624998,12.854961832061068,30.732824427480917,16.610687022900763,0.0
11.140000581741333,-10.714052429199219,0.9193734375,9.94072529296875,-5.190839694656488,95.52671755725191,12.992366412213741,-8.762778076171875,-1.6400281372070311,3.347093920898437,8.076335877862595,35.37404580152672,19.16030534351145,0.0
11.15000057220459,-10.71884083251953,1.2593500732421874,11.183315954589844,-3.1603053435114505,86.6412213740458,17.0381679389313,-10.000580334472655,-0.9576806640625,2.0278888061523435,4.717557251908397,35.25190839694657,19.984732824427482,0.0
11.160000562667847,-11.2240173828125,1.7860744384765623,11.690886706542969,-1.3740458015267176,77.32824427480917,19.603053435114504,-10.340556970214843,-1.6448165405273436,2.6575638427734374,3.6030534351145036,37.267175572519086,21.267175572519083,0.0
11.170000791549683,-12.061987963867187,3.0909143432617188,11.566388220214844,-7.969465648854962,64.50381679389314,21.374045801526716,-9.49300958251953,-1.5753846923828123,2.7150246826171873,7.7251908396946565,32.656488549618324,20.946564885496183,0.0
11.18000054359436,-11.085153686523437,2.8131869506835936,9.550470422363281,-24.045801526717558,45.06870229007634,23.114503816793892,-8.872911352539061,-0.8451531860351562,1.6136919189453125,2.0610687022900764,27.267175572519083,19.374045801526716,0.0
11.190000295639038,-9.342174877929686,-1.3096283081054687,6.481103894042969,-23.801526717557252,35.55725190839695,24.946564885496183,-8.88009395751953,1.3455413330078123,0.4477157104492187,-17.31297709923664,29.83206106870229,18.85496183206107,0.0
11.200000524520874,-12.04044014892578,-0.6823474731445313,5.310339282226562,-23.206106870229007,31.81679389312977,22.30534351145038,-9.648632690429688,-0.055066638183593745,0.9026140258789062,-35.89312977099237,38.85496183206107,24.12213740458015,0.0
11.21000051498413,-14.786589453125,-1.2042834350585936,4.656722229003906,-23.64885496183206,26.85496183206107,21.46564885496183,-10.568006127929687,-2.70065947265625,1.3551181396484375,-30.48854961832061,36.76335877862596,25.893129770992367,0.0
11.220000505447388,-13.682862487792969,-3.9935283691406247,3.3542765258789062,-4.183206106870229,24.427480916030536,24.702290076335878,-10.805032092285156,-1.2306196533203124,0.842758984375,-29.603053435114504,28.412213740458014,22.137404580152673,0.0
11.230000257492065,-14.228740466308594,-5.312733483886719,4.75009609375,16.946564885496183,29.96946564885496,23.34351145038168,-10.117896215820313,-0.6512228515624999,0.5722141967773438,-44.33587786259542,26.519083969465647,21.34351145038168,0.0
11.240000486373901,-15.346832641601562,-4.546588952636719,6.873752966308594,20.778625954198475,22.259541984732824,16.610687022900763,-10.13226142578125,-2.73896669921875,1.2641384765625,-36.87022900763359,21.938931297709924,20.9618320610687,0.0
11.250000238418579,-14.099453576660155,-3.555389465332031,8.17141026611328,37.267175572519086,7.786259541984733,15.908396946564885,-9.521740002441407,-4.924872814941406,2.863465185546875,-29.633587786259543,15.099236641221374,20.641221374045802,0.0
11.260000944137573,-12.567164514160156,-2.528276953125,7.841010437011718,52.42748091603053,-3.5419847328244276,18.30534351145038,-11.006145031738281,-2.365471240234375,2.3391350219726563,-14.351145038167939,2.9618320610687023,15.694656488549619,0.0
11.270000696182251,-9.153032946777342,-0.17956512451171874,4.089296435546875,62.6412213740458,-10.641221374045802,15.938931297709924,-10.548852514648438,0.3711012573242187,0.9648632690429687,-18.244274809160306,-8.122137404580153,11.34351145038168,0.0
11.280000925064087,-6.167463476562499,3.6008792968749996,0.8379705810546875,53.49618320610687,-13.358778625954198,12.549618320610687,-10.970232006835937,0.507570751953125,1.0917559570312498,-28.3206106870229,-7.267175572519084,13.068702290076336,0.0
11.290000915527344,-6.3709706176757805,5.372588525390625,-0.737414111328125,34.97709923664122,-13.374045801526718,9.450381679389313,-11.796231579589843,0.40462008056640625,0.9935936889648437,-28.12213740458015,-10.396946564885496,14.916030534351146,0.0
11.300000667572021,-4.9823336547851556,4.987122058105468,-2.920926025390625,24.870229007633586,-10.488549618320612,8.549618320610687,-12.296619726562499,0.5147533569335937,0.6392518432617187,-23.801526717557252,-16.106870229007633,15.526717557251908,0.0
11.310000658035278,-5.142745166015625,4.623203405761719,-4.546588952636719,7.083969465648855,-1.282442748091603,7.694656488549619,-12.868833923339842,-1.0989385620117187,2.35589443359375,-21.083969465648856,-17.786259541984734,16.061068702290076,0.0
11.320000648498535,-6.789955908203124,5.971138940429687,-3.7229835815429686,-23.16030534351145,4.778625954198473,6.870229007633588,-11.3006318359375,2.094926452636719,-0.7709329345703124,-22.870229007633586,-30.83969465648855,10.763358778625955,0.0
11.330000638961792,-8.425195642089843,6.167463476562499,-1.917755529785156,-51.770992366412216,10.549618320610687,11.221374045801527,-11.700463513183593,1.608903515625,-0.842758984375,-28.946564885496183,-30.717557251908396,9.923664122137405,0.0
11.340000629425049,-8.576030346679687,3.3542765258789062,-0.6344634399414062,-67.37404580152672,16.870229007633586,17.84732824427481,-13.694833496093748,2.5905261962890624,-1.0749965454101562,-33.20610687022901,-29.282442748091604,9.969465648854962,0.0
11.350000619888306,-8.846575134277343,0.2561795776367187,-0.062249243164062495,-58.458015267175576,30.427480916030536,20.33587786259542,-11.111489904785156,3.1938650146484373,-0.8571241943359375,-51.52671755725191,-28.48854961832061,8.732824427480915,0.0
11.360000610351562,-9.133879333496093,-1.2761094848632812,0.22505495605468748,-48.83969465648855,37.12977099236641,18.244274809160306,-12.662932580566405,0.15562310791015624,0.59376201171875,-41.19083969465649,-25.69465648854962,12.595419847328245,0.0
11.370000839233398,-10.172962854003906,-1.6112977172851561,-0.17238251953125,-37.81679389312977,43.31297709923664,13.511450381679388,-11.499350573730467,0.16998831787109375,1.4628572143554686,-26.50381679389313,-35.19083969465649,10.458015267175572,0.0
11.380000591278076,-9.466673364257812,-1.2880804931640624,0.06943184814453125,-26.137404580152673,47.083969465648856,10.763358778625955,-10.998962426757812,0.74699091796875,0.5722141967773438,-19.480916030534353,-44.213740458015266,8.488549618320612,0.0
11.390000820159912,-10.338162768554687,-0.699106884765625,0.2609679809570312,-25.00763358778626,47.66412213740458,6.106870229007634,-14.298172314453124,-0.0526724365234375,1.7645266235351562,-3.7404580152671754,-45.9236641221374,10.442748091603054,0.0
11.40000057220459,-10.43153663330078,-0.7733271362304687,1.1348515869140625,-21.893129770992367,49.083969465648856,2.0916030534351147,-9.22485899658203,2.4875755249023435,0.8547299926757812,-23.358778625954198,-54.35114503816794,5.709923664122138,0.0
11.410000801086426,-10.589553942871094,0.6153098266601562,1.024718310546875,-27.709923664122137,43.70992366412214,-0.1984732824427481,-10.924742175292968,0.8355763793945312,1.8555062866210936,-30.290076335877863,-47.06870229007634,8.854961832061068,0.0
11.420000553131104,-9.95987890625,-0.5530605834960938,1.407790576171875,-25.84732824427481,40.030534351145036,-2.4732824427480917,-10.299855541992187,1.484405029296875,1.5203180541992187,-25.114503816793892,-51.954198473282446,7.770992366412214,0.0
11.43000054359436,-11.034875451660156,0.7924807495117187,1.3910311645507811,-20.290076335877863,38.47328244274809,-3.8625954198473282,-9.165003955078124,3.81156904296875,1.0319009155273438,-38.0763358778626,-52.152671755725194,7.251908396946565,0.0
11.440000295639038,-9.205705383300781,0.9624690673828125,0.8882488159179687,-28.580152671755727,29.31297709923664,-2.8396946564885495,-10.081983190917969,2.693476867675781,1.9512743530273435,-51.083969465648856,-42.2442748091603,10.687022900763358,0.0
11.450000524520874,-9.64623848876953,0.49320554199218747,0.9504980590820312,-30.076335877862597,26.48854961832061,-1.6793893129770991,-10.991779821777342,-0.055066638183593745,2.365471240234375,-42.045801526717554,-42.87022900763359,13.282442748091603,0.0
11.460000276565552,-8.415618835449218,-1.6519991455078125,-0.03591302490234375,-23.954198473282442,21.328244274809162,0.21374045801526717,-10.263942517089843,0.6703764648437499,1.9823989746093749,-27.19083969465649,-54.717557251908396,10.854961832061068,0.0
11.470000505447388,-8.626308581542968,-1.0175357055664063,0.5530605834960938,-15.282442748091603,22.748091603053435,0.183206106870229,-8.889670764160156,3.2321722412109373,0.8810662109374999,-40.045801526717554,-56.091603053435115,8.732824427480915,0.0
11.480000495910645,-11.109095703125,2.748543505859375,1.944091748046875,-19.923664122137403,23.786259541984734,-0.10687022900763359,-9.153032946777342,0.41419688720703124,0.699106884765625,-46.54961832061068,-49.89312977099237,11.297709923664122,0.0
11.490000486373901,-9.854534033203125,0.833182177734375,1.446097802734375,-24.870229007633586,17.755725190839694,4.076335877862595,-10.512939489746094,-1.484405029296875,1.7429788085937499,-24.580152671755727,-55.32824427480916,12.931297709923664,0.0
11.500000476837158,-9.212887988281249,0.12449848632812499,0.6751648681640625,-16.977099236641223,17.786259541984734,5.877862595419847,-9.026140258789061,0.9457096557617187,0.36631285400390623,-22.83969465648855,-63.6793893129771,9.358778625954198,0.0
11.510000705718994,-9.923965881347655,1.8770541015625,1.2785036865234374,-20.458015267175572,19.022900763358777,3.404580152671756,-8.78432589111328,0.7757213378906249,0.24660277099609373,-36.83969465648855,-54.01526717557252,8.366412213740459,0.0
11.52000093460083,-10.603919152832031,1.5969325073242187,1.4724340209960938,-29.480916030534353,16.916030534351144,2.1374045801526718,-9.880870251464843,-2.96881005859375,0.5961562133789062,-21.053435114503817,-54.534351145038165,9.770992366412214,0.0
11.530000686645508,-10.108319409179687,0.7565677246093749,1.0869675537109373,-28.244274809160306,14.549618320610687,1.2366412213740459,-9.052476477050782,-0.8164227661132812,-0.70868369140625,-9.312977099236642,-64.0,5.984732824427481,0.0
11.540000677108765,-10.326191760253906,1.2689268798828124,1.2737152832031249,-28.33587786259542,14.625954198473282,-0.42748091603053434,-8.410830432128906,1.197100830078125,-1.0390835205078124,-22.50381679389313,-54.534351145038165,2.366412213740458,0.0
11.550000667572021,-9.375693701171874,-1.1731588134765625,0.35194764404296874,-23.938931297709924,12.80916030534351,1.2061068702290076,-10.330980163574218,-0.833182177734375,-0.38307226562499996,-14.305343511450381,-44.29007633587786,3.9389312977099236,0.0
11.560000658035278,-8.55448253173828,-0.354341845703125,0.373495458984375,-8.82442748091603,16.68702290076336,-2.381679389312977,-11.233594189453123,-0.1149216796875,-0.45010991210937495,2.183206106870229,-47.11450381679389,0.42748091603053434,0.0
11.570000886917114,-8.427589843749999,0.36631285400390623,0.10773907470703124,-8.473282442748092,16.427480916030536,-4.244274809160306,-8.702923034667968,3.9647979492187497,-1.8435352783203125,-13.877862595419847,-45.25190839694657,-7.770992366412214,0.0
11.580000400543213,-8.84178673095703,1.6352397338867186,0.3902548706054687,-10.946564885496183,17.954198473282442,-3.2977099236641223,-9.567229833984374,2.7461493041992187,-0.6967126831054687,-33.43511450381679,-26.35114503816794,-5.267175572519084,0.0
11.590000629425049,-10.09395419921875,3.459621398925781,1.0031704956054688,-30.38167938931298,12.396946564885496,-4.152671755725191,-10.024522351074218,1.9129671264648436,-0.7158662963867187,-38.97709923664122,-17.984732824427482,-5.022900763358779,0.0
11.600000381469727,-10.005368737792969,1.5586252807617187,0.7972691528320313,-31.114503816793892,9.618320610687023,-1.6946564885496183,-11.116278308105468,0.37828386230468747,-0.9074024291992187,-31.862595419847327,-15.251908396946565,-6.412213740458015,0.0
11.61000108718872,-9.694122521972655,0.8690952026367187,0.5363011718749999,-24.12213740458015,11.618320610687023,-2.0763358778625953,-11.080365283203124,0.10295067138671875,-0.5027823486328125,-24.213740458015266,-16.12213740458015,-10.763358778625955,0.0
11.62000060081482,-10.117896215820313,1.4245499877929686,0.3112462158203125,-23.51145038167939,12.122137404580153,-3.0229007633587788,-10.601524951171875,-1.5011644409179687,1.1324573852539062,-13.709923664122137,-15.755725190839694,-14.13740458015267,0.0
11.630000829696655,-9.90241806640625,1.1516109985351561,0.201112939453125,-23.16030534351145,13.419847328244275,-3.3435114503816794,-9.911994873046874,-0.74699091796875,0.8738836059570312,-1.618320610687023,-21.557251908396946,-16.763358778625953,0.0
11.640000581741333,-9.950302099609374,1.438915197753906,0.28490999755859375,-26.610687022900763,15.145038167938932,-3.5877862595419847,-8.712499841308594,-0.3016694091796875,0.9576806640625,-2.351145038167939,-24.748091603053435,-19.786259541984734,0.0
11.65000057220459,-9.694122521972655,1.4724340209960938,0.38307226562499996,-31.64885496183206,16.412213740458014,-3.7557251908396947,-8.762778076171875,1.2330138549804688,0.5123591552734374,-7.206106870229007,-19.923664122137403,-19.297709923664122,0.0
11.660000562667847,-9.849745629882811,1.5490484741210937,0.7517793212890624,-41.603053435114504,15.526717557251908,-3.5419847328244276,-8.805873706054687,0.93852705078125,1.3958195678710936,-12.01526717557252,-11.511450381679388,-16.076335877862597,0.0
11.670000791549683,-9.674968908691406,0.7829039428710937,1.024718310546875,-43.969465648854964,14.946564885496183,-3.786259541984733,-9.504980590820312,0.28012159423828126,2.013523596191406,-1.8015267175572518,-12.335877862595419,-13.251908396946565,0.0
11.68000054359436,-10.127473022460936,0.7134720947265625,1.2042834350585936,-40.48854961832061,13.587786259541986,-4.67175572519084,-10.735600244140624,-0.6584054565429687,2.473210314941406,18.229007633587788,-18.763358778625953,-11.511450381679388,0.0
11.690000772476196,-9.255983618164063,-1.0103531005859374,0.6751648681640625,-27.83206106870229,13.98473282442748,-4.442748091603053,-10.539275708007812,-1.0342951171875,4.070142822265625,35.847328244274806,-22.931297709923665,-12.213740458015268,0.0
11.700000524520874,-9.543287817382812,0.612915625,1.2904746948242187,-19.87786259541985,15.98473282442748,-7.267175572519084,-10.481814868164061,-1.2473790649414063,3.5122938354492184,55.908396946564885,-35.57251908396947,-14.213740458015268,0.0
11.71000051498413,-10.058041174316406,0.4572925170898437,1.2785036865234374,-20.396946564885496,14.366412213740459,-7.480916030534351,-8.91840118408203,2.3582886352539063,2.4396914916992185,58.030534351145036,-44.38167938931298,-17.251908396946565,0.0
11.720000505447388,-9.181763366699219,1.3431471313476562,1.3263877197265623,-19.51145038167939,11.419847328244275,-5.435114503816794,-8.36294639892578,2.521094348144531,2.6288334228515624,34.87022900763359,-34.36641221374046,-13.816793893129772,0.0
11.730000495910645,-9.464279162597656,1.0749965454101562,1.8004396484374998,-21.435114503816795,11.17557251908397,-3.5419847328244276,-9.428366137695312,0.7996633544921875,2.770091320800781,38.732824427480914,-35.3587786259542,-7.587786259541985,0.0
11.740000486373901,-9.90241806640625,1.5562310791015623,1.8028338500976562,-21.16030534351145,7.984732824427481,-2.6717557251908395,-8.513781103515624,3.4739866088867184,2.118868469238281,40.916030534351144,-40.534351145038165,-8.0,0.0
11.750000238418579,-9.849745629882811,1.5969325073242187,1.7334020019531249,-17.83206106870229,7.526717557251908,-1.1297709923664123,-6.593631372070312,4.333505004882812,1.4963760375976562,11.022900763358779,-30.50381679389313,-8.977099236641221,0.0
11.760000944137573,-9.79946739501953,1.4915876342773438,1.6615759521484375,-21.83206106870229,4.870229007633588,-0.16793893129770993,-7.510610607910156,3.921702319335937,1.8770541015625,-11.221374045801527,-19.022900763358777,-5.32824427480916,0.0
11.770000696182251,-10.034099157714843,1.1947066284179686,1.5370774658203123,-19.81679389312977,3.2061068702290076,-0.183206106870229,-9.253589416503905,1.5945383056640625,2.7269956909179687,-16.16793893129771,-13.053435114503817,-0.13740458015267176,0.0
11.780000925064087,-9.68454571533203,0.5961562133789062,1.0678139404296874,-16.80916030534351,1.8015267175572518,-0.6259541984732825,-8.836998327636719,2.461239306640625,2.6623522460937497,-10.763358778625955,-16.061068702290076,1.099236641221374,0.0
11.790000677108765,-9.789890588378906,0.9026140258789062,0.5363011718749999,-11.908396946564885,1.5725190839694656,-1.2366412213740459,-8.942343200683593,2.042254016113281,2.858676782226562,-17.358778625954198,-12.442748091603054,1.7099236641221374,0.0
11.800000667572021,-9.667786303710937,1.1755530151367186,0.21068974609375,-11.251908396946565,2.9923664122137406,-0.9465648854961832,-8.935160595703124,1.8650830932617186,2.7078420776367187,-22.12213740458015,-12.106870229007633,2.33587786259542,0.0
11.810000896453857,-9.600748657226562,1.3551181396484375,0.023942016601562498,-11.587786259541986,3.648854961832061,-0.8702290076335878,-10.244788903808594,0.30885201416015623,3.399766357421875,-20.30534351145038,-11.435114503816793,3.969465648854962,0.0
11.820000648498535,-9.208099584960937,0.928950244140625,-0.023942016601562498,-10.534351145038167,6.030534351145038,-0.9312977099236641,-11.269507214355468,-0.028730419921875,4.180276098632812,-16.091603053435115,-13.801526717557252,3.2061068702290076,0.0
11.830000638961792,-7.596801867675781,-1.4006079711914061,-0.8954314208984374,-0.1984732824427481,9.618320610687023,-0.5801526717557252,-10.342951171874999,-0.21308394775390624,4.517858532714843,-17.709923664122137,-18.80916030534351,-0.1984732824427481,0.0
11.840000629425049,-7.299920861816406,-0.26336218261718747,-0.5578489868164063,9.17557251908397,15.618320610687023,-4.625954198473282,-11.066000073242186,-0.373495458984375,4.163516687011718,-12.702290076335878,-25.129770992366414,-2.885496183206107,0.0
11.850000619888306,-10.172962854003906,1.886630908203125,0.9337386474609375,4.366412213740458,22.68702290076336,-10.091603053435115,-10.036493359375,2.1212626708984375,3.3877953491210935,-19.893129770992367,-29.66412213740458,-7.282442748091603,0.0
11.860000610351562,-9.327809667968749,2.4779987182617185,0.19153613281249998,-3.954198473282443,17.389312977099237,-7.893129770992366,-7.793126403808594,3.816357446289062,3.0909143432617188,-48.80916030534351,-23.69465648854962,-9.541984732824428,0.0
11.87000036239624,-9.600748657226562,3.4739866088867184,1.0965443603515623,-14.106870229007633,17.49618320610687,-5.4961832061068705,-9.085995300292968,2.04943662109375,3.4356793823242184,-64.03053435114504,-15.709923664122137,-4.900763358778626,0.0
11.880000591278076,-9.526528405761718,2.6192566162109374,0.6272808349609375,-21.49618320610687,16.85496183206107,-2.687022900763359,-9.311050256347656,1.8842367065429686,3.5601778686523438,-66.12213740458016,-15.664122137404581,-2.8702290076335877,0.0
11.890000820159912,-9.581595043945311,2.1404162841796874,-0.08858546142578125,-28.68702290076336,13.786259541984732,0.12213740458015267,-9.157821350097656,1.455674609375,3.5697546752929687,-69.26717557251908,-17.69465648854962,-2.3969465648854964,0.0
11.90000033378601,-10.424354028320312,3.1771056030273437,0.316034619140625,-41.099236641221374,12.473282442748092,0.5648854961832062,-7.843404638671874,1.6998831787109374,3.086125939941406,-79.20610687022901,-16.9618320610687,-3.1908396946564888,0.0
11.910000562667847,-9.04050546875,-0.24899697265624998,-0.9433154541015625,-42.6412213740458,12.732824427480915,4.900763358778626,-8.33182177734375,-0.011971008300781249,2.530671154785156,-76.06106870229007,-17.633587786259543,-0.3511450381679389,0.0
11.920000314712524,-8.609549169921875,-0.354341845703125,-1.2330138549804688,-36.87022900763359,17.51145038167939,3.801526717557252,-9.050082275390624,-0.5219359619140624,2.722207287597656,-76.7175572519084,-14.442748091603054,0.549618320610687,0.0
11.930000305175781,-7.474697583007812,-0.8906430175781249,-1.7788918334960937,-38.412213740458014,20.12213740458015,1.9389312977099236,-8.207323291015625,-1.0366893188476562,2.2649147705078123,-75.49618320610686,-13.404580152671755,-1.1145038167938932,0.0
11.940000534057617,-9.04050546875,-0.9050082275390624,-1.2210428466796874,-35.11450381679389,28.549618320610687,-0.42748091603053434,-8.197746484375,-1.946485949707031,2.032677209472656,-68.27480916030534,-11.633587786259541,-1.8015267175572518,0.0
11.950000286102295,-9.564835632324218,-0.1867477294921875,-0.7302315063476562,-36.25954198473283,34.01526717557252,-3.145038167938931,-9.198522778320312,-3.881000891113281,2.4851813232421875,-51.587786259541986,-10.274809160305344,-1.7251908396946565,0.0
11.960000276565552,-8.729259252929687,-0.5722141967773438,-0.967257470703125,-35.81679389312977,35.12977099236641,-4.076335877862595,-8.796296899414061,-3.5410242553710933,2.6982652709960937,-35.404580152671755,-11.84732824427481,-5.755725190839694,0.0
11.970000267028809,-8.904035974121093,-0.8068459594726562,-0.49320554199218747,-31.72519083969466,40.70229007633588,-5.709923664122138,-9.320627062988281,-4.314351391601562,2.89219560546875,-22.35114503816794,-10.641221374045802,-8.030534351145038,0.0
11.980000495910645,-9.964667309570311,0.040701428222656245,0.143652099609375,-33.14503816793893,43.64885496183206,-8.549618320610687,-7.594407666015624,-2.990357873535156,1.5610194824218748,-8.396946564885496,-16.045801526717558,-12.305343511450381,0.0
11.990000486373901,-9.686939916992188,-0.5051765502929687,-0.105344873046875,-30.33587786259542,43.083969465648856,-8.488549618320612,-8.0062103515625,-5.1523219726562495,2.233790148925781,2.931297709923664,-13.114503816793894,-12.748091603053435,0.0
12.000000476837158,-9.179369165039063,-0.4165910888671875,0.06943184814453125,-23.87786259541985,45.93893129770992,-9.251908396946565,-8.17141026611328,-2.4349030883789062,1.9847931762695312,24.412213740458014,-16.732824427480917,-16.244274809160306,0.0
12.010000467300415,-9.789890588378906,-0.00718260498046875,0.277727392578125,-24.229007633587788,46.48854961832061,-11.083969465648854,-6.260837341308593,0.7972691528320313,1.9919757812499999,11.022900763358779,-5.374045801526718,-20.80916030534351,0.0
12.02000093460083,-9.421183532714844,-0.34237083740234375,0.45010991210937495,-24.977099236641223,47.038167938931295,-9.206106870229007,-6.830657336425781,-0.0143652099609375,2.1260510742187497,4.198473282442748,4.748091603053435,-17.419847328244273,0.0
12.030000686645508,-9.686939916992188,-0.6607996582031249,0.5482721801757812,-21.17557251908397,46.38167938931298,-9.648854961832061,-7.876923461914062,-0.7302315063476562,2.6336218261718747,13.389312977099237,6.931297709923665,-12.748091603053435,0.0
12.040000677108765,-9.631873278808593,-0.8643067993164062,0.6655880615234374,-12.412213740458014,48.030534351145036,-10.854961832061068,-6.993463049316406,-0.03591302490234375,2.133233679199219,19.129770992366414,9.587786259541986,-11.251908396946565,0.0
12.050000667572021,-9.97903251953125,-0.6871358764648438,0.5770026000976562,-6.076335877862595,48.68702290076336,-11.969465648854962,-7.311891870117187,0.031124621582031248,2.327164013671875,18.9618320610687,14.01526717557252,-11.267175572519085,0.0
12.060000658035278,-9.65342109375,-0.6823474731445313,0.5817910034179687,-1.1755725190839694,48.30534351145038,-12.50381679389313,-7.989450939941406,-1.66636435546875,3.342305517578125,12.396946564885496,24.717557251908396,-10.610687022900763,0.0
12.070000410079956,-9.911994873046874,-0.38307226562499996,0.8834604125976562,3.282442748091603,49.57251908396947,-13.007633587786259,-8.224082702636718,-2.8275521606445313,3.763685009765625,20.99236641221374,24.99236641221374,-10.01526717557252,0.0
12.080000400543213,-9.402029919433593,0.19393033447265623,0.7733271362304687,6.396946564885496,47.69465648854962,-13.755725190839694,-7.1395093505859375,-0.8762778076171874,2.5522189697265625,28.244274809160306,19.740458015267176,-13.419847328244275,0.0
12.090000629425049,-9.74200655517578,0.9552864624023437,0.6967126831054687,5.190839694656488,46.19847328244275,-14.13740458015267,-7.201758593749999,-1.1635820068359375,2.3487118286132813,22.65648854961832,25.480916030534353,-14.854961832061068,0.0
12.100000619888306,-9.81862100830078,0.6344634399414062,0.7613561279296874,2.0610687022900764,44.36641221374046,-13.48091603053435,-7.663839514160156,-0.44053310546874996,3.35188232421875,22.946564885496183,30.53435114503817,-14.534351145038167,0.0
12.110000610351562,-10.216058483886718,1.1947066284179686,1.2473790649414063,-1.8473282442748091,40.82442748091603,-13.114503816793894,-6.643909606933593,0.842758984375,2.4013842651367185,14.229007633587786,32.87022900763359,-15.16030534351145,0.0
12.12000060081482,-10.261548315429687,0.928950244140625,1.7932570434570312,-3.450381679389313,37.41984732824427,-11.603053435114504,-6.998251452636718,1.2521674682617188,2.47081611328125,-5.435114503816794,43.221374045801525,-15.511450381679388,0.0
12.130000352859497,-11.204863769531249,0.28969840087890625,2.3822306518554686,-1.9389312977099236,32.36641221374046,-10.213740458015268,-9.670180505371093,-1.2521674682617188,3.3973721557617185,-3.618320610687023,48.01526717557252,-11.267175572519085,0.0
12.140000581741333,-11.494562170410155,-0.7613561279296874,2.9927520751953125,7.801526717557252,27.923664122137403,-10.15267175572519,-10.500968481445312,0.4333505004882812,3.5194764404296874,10.610687022900763,41.23664122137404,-11.923664122137405,0.0
12.150000810623169,-11.623849060058593,0.17477672119140625,3.603273498535156,14.931297709923664,20.366412213740457,-10.793893129770993,-11.180921752929686,2.7748797241210936,4.565742565917969,-4.6106870229007635,44.68702290076336,-16.458015267175572,0.0
12.160000562667847,-12.27746611328125,0.55545478515625,4.441244079589843,16.564885496183205,8.091603053435115,-9.19083969465649,-14.851232897949219,0.5961562133789062,7.64229169921875,-12.50381679389313,45.57251908396947,-13.893129770992367,0.0
12.170000553131104,-13.283030810546874,0.18914193115234373,5.279214660644531,20.244274809160306,-5.66412213740458,-7.465648854961832,-16.534356665039063,-0.3016694091796875,8.86094034423828,-2.4122137404580153,27.69465648854962,-12.198473282442748,0.0
12.18000054359436,-13.845668200683592,2.269703173828125,6.809109521484374,16.229007633587788,-23.786259541984734,-8.488549618320612,-14.49928525390625,0.9576806640625,6.828263134765624,-9.770992366412214,12.488549618320612,-12.335877862595419,0.0
12.190000534057617,-11.604695446777344,-2.1715409057617188,7.005434057617187,29.267175572519083,-42.56488549618321,-4.687022900763359,-10.328585961914062,0.4429273071289062,3.7110125732421873,-26.458015267175572,9.450381679389313,-9.664122137404581,0.0
12.200000286102295,-12.785036865234375,-1.5035586425781249,7.735665563964844,32.12213740458015,-65.3587786259542,-5.603053435114504,-9.8449572265625,-0.9528922607421875,0.031124621582031248,-27.374045801526716,7.343511450381679,-3.099236641221374,0.0
12.21000051498413,-11.008539233398437,-3.229778039550781,7.529764221191406,46.778625954198475,-91.43511450381679,-5.862595419847328,-8.971073620605468,-1.5490484741210937,0.1484405029296875,-18.290076335877863,10.992366412213741,2.885496183206107,0.0
12.220000505447388,-14.405911389160156,-0.3591302490234375,9.967061511230469,46.42748091603053,-110.80916030534351,-8.67175572519084,-7.831433630371094,-1.4149731811523436,-0.09576806640624999,-10.274809160305344,11.801526717557252,4.198473282442748,0.0
12.230000495910645,-15.547945581054687,-1.3407529296874998,9.380482104492186,40.19847328244275,-145.31297709923663,-8.977099236641221,-9.435548742675781,-2.7557261108398436,0.11252747802734374,18.30534351145038,8.213740458015268,5.938931297709924,0.0
12.24000096321106,-17.214309936523435,-1.0941501586914062,8.678981018066406,42.274809160305345,-171.98473282442748,-7.572519083969466,-9.191340173339842,-2.6408044311523438,-0.06703764648437499,28.12213740458015,12.732824427480915,3.7404580152671754,0.0
12.250000238418579,-18.593370092773437,-2.4779987182617185,9.193734375,40.396946564885496,-200.27480916030535,-6.931297709923665,-9.483432775878907,-3.1028853515624997,-0.3280056274414062,40.6412213740458,16.931297709923665,0.061068702290076333,0.0
12.260000944137573,-19.610905798339843,-3.35188232421875,8.195352282714843,52.33587786259542,-227.26717557251908,-6.5038167938931295,-9.679757312011718,-2.5665841796874997,-0.6679822631835937,40.93129770992366,25.480916030534353,-3.7404580152671754,0.0
12.270000696182251,-19.156007482910155,-1.9201497314453124,4.659116430664063,64.58015267175573,-237.45038167938932,-7.7251908396946565,-9.988609326171874,-3.1292215698242187,0.45968671875,49.48091603053435,32.74809160305343,-5.251908396946565,0.0
12.280000925064087,-17.140089685058594,0.7110778930664062,0.1771709228515625,35.16030534351145,-258.58015267175574,-12.335877862595419,-9.548076220703125,-1.4173673828125,0.3064578125,55.66412213740458,32.79389312977099,-8.290076335877863,0.0
12.290000677108765,-16.309301708984375,-2.521094348144531,-3.6056677001953124,53.17557251908397,-258.3206106870229,0.5954198473282443,-9.284714038085937,-1.8842367065429686,1.9632453613281249,52.74809160305343,41.465648854961835,-7.633587786259542,0.0
12.300000667572021,-13.864821813964843,-1.8004396484374998,-5.595249279785156,63.43511450381679,-241.6946564885496,8.381679389312977,-10.137049829101562,-2.128445275878906,1.9680337646484374,60.396946564885496,37.12977099236641,-8.320610687022901,0.0
12.3100004196167,-11.573570825195311,-0.8930372192382812,-9.672574707031249,60.74809160305343,-219.7709923664122,13.740458015267176,-11.372457885742186,-1.867477294921875,2.1308394775390624,72.82442748091603,31.404580152671755,-9.34351145038168,0.0
12.320000648498535,-8.214505895996094,-3.517082238769531,-12.564770312499999,59.93893129770992,-186.83969465648855,17.908396946564885,-10.596736547851561,-0.25139117431640623,-1.1420341918945311,69.89312977099236,19.541984732824428,-13.038167938931299,0.0
12.330000638961792,-6.399701037597656,-5.949591125488281,-11.583147631835937,58.56488549618321,-153.14503816793894,11.038167938931299,-11.262324609375,-0.7134720947265625,0.9959878906249999,62.396946564885496,25.450381679389313,-10.106870229007633,0.0
12.34000039100647,-5.224148022460938,-6.921636999511718,-9.859322436523437,64.74809160305344,-120.21374045801527,0.32061068702290074,-10.383652600097655,0.6416460449218749,1.0295067138671874,52.18320610687023,20.48854961832061,-6.687022900763359,0.0
12.350000619888306,-5.363011718749999,-4.431667272949219,-7.199364392089843,77.89312977099236,-85.93893129770993,-12.595419847328245,-10.319009155273436,0.5482721801757812,1.180341418457031,38.6412213740458,21.557251908396946,-2.2442748091603053,0.0
12.360000610351562,-4.891353991699218,-2.1787235107421874,-3.835511059570312,83.96946564885496,-63.06870229007634,-20.290076335877863,-9.667786303710937,0.6536170532226562,0.14604630126953125,26.259541984732824,19.801526717557252,0.3969465648854962,0.0
12.370000839233398,-7.213729602050781,0.49799394531249996,-0.3232172241210937,86.1526717557252,-43.05343511450382,-23.022900763358777,-10.007762939453125,-0.6344634399414062,0.3184288208007812,18.885496183206108,21.954198473282442,3.6030534351145036,0.0
12.380000352859497,-7.924807495117187,2.389413256835937,0.842758984375,78.03053435114504,-34.76335877862596,-20.16793893129771,-9.404424121093749,-0.5291185668945312,0.15562310791015624,16.15267175572519,21.87786259541985,3.572519083969466,0.0
12.390000581741333,-7.060500695800781,3.928884924316406,0.5961562133789062,64.79389312977099,-31.206106870229007,-12.793893129770993,-8.755595471191405,0.22744915771484372,-0.34237083740234375,8.366412213740459,24.259541984732824,2.5343511450381677,0.0
12.40000057220459,-8.858546142578124,5.434837768554687,1.13006318359375,38.93129770992366,-27.572519083969464,-6.427480916030534,-7.3094976684570305,1.2641384765625,-1.1611878051757811,-5.083969465648855,28.748091603053435,3.114503816793893,0.0
12.410000801086426,-8.559270935058594,6.677428430175781,0.7541735229492187,7.480916030534351,-26.671755725190838,3.404580152671756,-7.199364392089843,2.5426421630859375,-1.3838485595703125,-29.022900763358777,42.595419847328245,6.015267175572519,0.0
12.420000553131104,-6.1842228881835934,4.486733911132812,-1.1228805786132812,-12.381679389312977,-26.16793893129771,14.351145038167939,-8.020575561523437,1.62805712890625,-0.5386953735351562,-46.916030534351144,56.2442748091603,12.83969465648855,0.0
12.43000054359436,-4.92247861328125,2.592920397949219,-1.9919757812499999,-17.893129770992367,-16.885496183206108,19.64885496183206,-9.670180505371093,-0.12449848632812499,0.33039982910156246,-40.16793893129771,57.9236641221374,17.31297709923664,0.0
12.440000534057617,-4.759672900390624,0.9265560424804687,-2.3367408203125,-25.46564885496183,-7.129770992366412,19.068702290076335,-9.344569079589844,0.28012159423828126,0.86191259765625,-42.76335877862596,62.93129770992366,16.610687022900763,0.0
12.450000286102295,-3.5793314819335937,-1.0223241088867188,-2.863465185546875,-27.587786259541986,3.5572519083969465,21.083969465648856,-11.008539233398437,-3.39018955078125,1.8291700683593748,-29.46564885496183,62.38167938931298,21.603053435114504,0.0
12.46000051498413,-3.4739866088867184,-1.0606313354492187,-1.8243816650390623,-16.80916030534351,25.083969465648856,17.69465648854962,-10.678139404296875,-3.0526071166992184,1.5251064575195312,-8.854961832061068,52.10687022900763,18.580152671755727,0.0
12.470000505447388,-5.84185205078125,2.683900061035156,-0.2657563842773437,-41.908396946564885,30.076335877862597,8.534351145038167,-10.390835205078124,-1.3168109130859373,1.0295067138671874,-6.076335877862595,52.0,16.671755725190838,0.0
12.480000495910645,-4.8698061767578125,0.17956512451171874,0.16519991455078123,-58.916030534351144,36.13740458015267,10.610687022900763,-13.031639636230468,-5.5545478515625,2.722207287597656,11.465648854961833,49.969465648854964,21.938931297709924,0.0
12.490000486373901,-2.501940734863281,-3.517082238769531,-0.10773907470703124,-44.33587786259542,49.404580152671755,10.122137404580153,-10.632649572753905,-2.9041666137695312,1.5682020874023437,38.42748091603053,32.33587786259542,17.61832061068702,0.0
12.500000476837158,-3.632003918457031,-4.235342736816406,1.0582371337890624,-29.984732824427482,63.770992366412216,6.137404580152672,-10.053252770996092,-1.484405029296875,1.407790576171875,38.2442748091603,31.709923664122137,13.145038167938932,0.0
12.510000705718994,-4.99909306640625,-4.331110803222656,3.8043864379882812,-21.954198473282442,79.81679389312977,0.4580152671755725,-9.435548742675781,-1.2569558715820313,1.9919757812499999,37.49618320610687,31.96946564885496,13.312977099236642,0.0
12.520000696182251,-6.754042883300781,-2.96881005859375,6.414066247558593,-16.35114503816794,84.87022900763358,-5.022900763358779,-10.486603271484375,-1.5634136840820312,2.588131994628906,40.534351145038165,31.267175572519083,15.34351145038168,0.0
12.530000686645508,-7.752424975585937,-2.559401574707031,9.334992272949219,-2.9770992366412212,86.42748091603053,-5.679389312977099,-9.782707983398437,-0.70868369140625,2.4779987182617185,40.87022900763359,26.106870229007633,15.267175572519085,0.0
12.540000677108765,-9.038111267089842,-0.8092401611328125,12.172121240234373,18.229007633587788,83.80152671755725,-3.4656488549618323,-10.153809240722655,-1.0534487304687499,3.0406361083984375,37.80152671755725,25.66412213740458,16.290076335877863,0.0
12.550000667572021,-10.139444030761718,1.2761094848632812,12.332532751464843,29.984732824427482,76.61068702290076,0.5801526717557252,-9.267954626464844,-0.181959326171875,2.5713725830078125,33.89312977099237,21.221374045801525,16.244274809160306,0.0
12.5600004196167,-10.797849487304687,3.3351229125976563,10.711658227539061,30.442748091603054,65.6793893129771,4.885496183206107,-10.110713610839843,-1.0199299072265624,2.7461493041992187,29.282442748091604,20.30534351145038,18.641221374045802,0.0
12.570000648498535,-11.97100830078125,4.637568615722656,9.962273107910155,9.709923664122137,49.541984732824424,8.030534351145038,-11.0707884765625,0.5219359619140624,2.530671154785156,23.358778625954198,22.885496183206108,20.106870229007633,0.0
12.580000638961792,-9.957484704589843,0.229843359375,7.975085729980468,-1.1297709923664123,33.06870229007634,14.580152671755725,-9.82580361328125,-0.062249243164062495,2.5354595581054684,22.53435114503817,16.076335877862597,21.557251908396946,0.0
12.59000039100647,-9.595960253906249,-1.0558429321289062,7.764395983886718,1.0076335877862594,27.984732824427482,14.732824427480915,-10.225635290527343,0.06703764648437499,2.858676782226562,11.236641221374045,17.17557251908397,22.641221374045802,0.0
12.600000619888306,-13.644555261230469,0.08140285644531249,7.264007836914062,-12.045801526717558,17.51145038167939,13.17557251908397,-10.615890161132812,0.0383072265625,2.863465185546875,-0.183206106870229,19.068702290076335,24.045801526717558,0.0
12.610000610351562,-13.596671228027343,-0.9169792358398436,4.99909306640625,-5.1603053435114505,9.86259541984733,15.541984732824428,-10.168174450683592,-0.12449848632812499,3.1747114013671873,-6.412213740458015,14.763358778625955,25.66412213740458,0.0
12.62000060081482,-13.204022155761718,-0.928950244140625,2.5043349365234375,15.664122137404581,12.534351145038167,22.366412213740457,-9.318232861328125,0.9888052856445312,1.668758557128906,-20.38167938931298,8.442748091603054,24.396946564885496,0.0
12.630000829696655,-12.897564343261719,1.4724340209960938,2.1835119140624997,4.854961832061068,5.786259541984733,24.091603053435115,-9.093177905273437,1.7812860351562498,1.2401964599609374,-41.954198473282446,12.381679389312977,25.954198473282442,0.0
12.640000343322754,-11.226411584472656,-3.2417490478515623,1.7621324218749999,32.717557251908396,14.702290076335878,31.740458015267176,-10.01733974609375,-1.2904746948242187,1.9919757812499999,-45.465648854961835,13.86259541984733,30.748091603053435,0.0
12.650000810623169,-10.184933862304687,-3.1962592163085937,1.0797849487304687,36.44274809160305,9.893129770992367,25.81679389312977,-9.94072529296875,-0.7445967163085937,1.9728221679687499,-39.221374045801525,8.80916030534351,28.244274809160306,0.0
12.660000324249268,-7.8170684204101555,-2.166752502441406,1.4772224243164063,58.83969465648855,19.17557251908397,21.87786259541985,-9.325415466308593,-2.1452046874999997,3.0813375366210938,-26.18320610687023,1.8015267175572518,25.00763358778626,0.0
12.670000791549683,-9.85692823486328,2.185906115722656,3.1771056030273437,37.282442748091604,20.0,8.610687022900763,-10.084377392578125,-0.8379705810546875,1.2785036865234374,-20.625954198473284,-10.870229007633588,18.732824427480917,0.0
12.68000054359436,-9.409212524414063,3.9647979492187497,3.246537451171875,13.129770992366412,13.312977099236642,5.8320610687022905,-11.413159313964844,-0.047884033203124995,0.9169792358398436,-26.244274809160306,-11.221374045801527,16.946564885496183,0.0
12.690000534057617,-9.634267480468749,5.224148022460938,1.8602946899414061,-11.419847328244275,8.229007633587786,5.526717557251908,-11.77228956298828,1.0438719238281249,0.076614453125,-28.259541984732824,-13.770992366412214,15.755725190839694,0.0
12.700000524520874,-8.468291271972657,4.987122058105468,-0.3064578125,-31.66412213740458,7.3893129770992365,7.419847328244275,-12.373234179687499,1.5346832641601562,-0.27293898925781246,-29.114503816793892,-15.725190839694656,16.3206106870229,0.0
12.71000051498413,-7.843404638671874,3.0980969482421874,-1.8171990600585937,-48.10687022900763,7.541984732824427,9.893129770992367,-12.741941235351561,2.597708801269531,-0.45489831542968745,-33.847328244274806,-17.14503816793893,15.450381679389313,0.0
12.720000505447388,-6.718129858398437,0.1867477294921875,-2.3415292236328122,-41.55725190839695,17.419847328244273,13.618320610687023,-13.0627642578125,2.597708801269531,-0.3399766357421875,-40.48854961832061,-17.633587786259543,15.572519083969466,0.0
12.730000495910645,-7.594407666015624,-0.040701428222656245,-2.01112939453125,-29.389312977099237,34.229007633587784,10.091603053435115,-12.667720983886719,2.1978771240234374,0.028730419921875,-46.62595419847328,-20.015267175572518,13.282442748091603,0.0
12.740000486373901,-8.10197841796875,-0.6727706665039062,-1.6472107421875,-25.099236641221374,40.61068702290076,9.007633587786259,-13.065158459472656,1.1252747802734375,0.7134720947265625,-44.30534351145038,-23.206106870229007,12.870229007633588,0.0
12.750000476837158,-9.172186560058593,-0.6440402465820312,-0.24899697265624998,-15.114503816793894,50.595419847328245,7.343511450381679,-11.652579479980469,0.5051765502929687,0.8930372192382812,-39.63358778625954,-33.00763358778626,10.854961832061068,0.0
12.760000944137573,-9.179369165039063,0.062249243164062495,0.14604630126953125,-10.916030534351146,52.900763358778626,5.083969465648855,-13.041216442871093,0.16280571289062498,2.4109610717773435,-23.099236641221374,-39.86259541984733,9.267175572519085,0.0
12.770000696182251,-9.909600671386718,1.3646949462890625,0.8020575561523438,-8.732824427480915,54.79389312977099,3.2519083969465647,-10.237606298828124,3.4524387939453125,1.6807295654296874,-34.213740458015266,-44.85496183206107,6.732824427480916,0.0
12.780001163482666,-10.237606298828124,1.3239935180664062,0.7541735229492187,-15.954198473282442,53.14503816793893,2.9618320610687023,-10.206481677246094,3.8091748413085935,-0.16041151123046873,-39.267175572519086,-48.56488549618321,5.541984732824427,0.0
12.790000677108765,-10.907982763671875,1.6735469604492186,0.852335791015625,-19.572519083969464,52.56488549618321,0.21374045801526717,-8.353369592285155,2.118868469238281,1.1037269653320312,-46.30534351145038,-46.656488549618324,5.648854961832061,0.0
12.800000667572021,-9.87608184814453,0.27293898925781246,0.23223756103515625,-23.0381679389313,47.969465648854964,-1.1450381679389312,-10.726023437499999,-1.0438719238281249,2.4875755249023435,-33.9236641221374,-47.32824427480916,6.641221374045801,0.0
12.810000658035278,-10.304643945312499,-0.04548983154296875,0.296881005859375,-14.595419847328245,49.00763358778626,-4.1679389312977095,-9.512163195800781,-0.12689268798828124,2.2864625854492187,-27.16030534351145,-54.93129770992366,2.4732824427480917,0.0
12.820000648498535,-10.697293017578124,-0.5123591552734374,0.30885201416015623,-14.625954198473282,46.47328244274809,-6.1679389312977095,-10.13226142578125,0.8451531860351562,1.9488801513671874,-17.221374045801525,-60.83969465648855,-2.9923664122137406,0.0
12.830000638961792,-10.453084448242187,0.6296750366210937,0.8595183959960937,-6.549618320610687,47.587786259541986,-7.358778625954199,-9.349357482910156,0.49320554199218747,1.9632453613281249,-25.954198473282442,-56.732824427480914,-1.8015267175572518,0.0
12.840000867843628,-10.59194814453125,1.2617442749023438,0.9959878906249999,-14.549618320610687,45.37404580152672,-8.67175572519084,-9.239224206542968,1.2761094848632812,0.8762778076171874,-21.022900763358777,-59.404580152671755,-3.9389312977099236,0.0
12.850000619888306,-9.713276135253906,2.7724855224609373,1.2473790649414063,-17.221374045801525,42.274809160305345,-8.870229007633588,-7.793126403808594,3.864241479492187,-0.023942016601562498,-36.900763358778626,-53.969465648854964,-4.091603053435114,0.0
12.860000610351562,-10.299855541992187,3.6272155151367187,1.2330138549804688,-34.213740458015266,35.89312977099237,-7.297709923664122,-8.576030346679687,0.36631285400390623,0.5602431884765625,-40.87022900763359,-43.02290076335878,-0.4732824427480916,0.0
12.870000839233398,-9.437942944335937,1.70467158203125,0.6057330200195312,-36.229007633587784,30.412213740458014,-3.450381679389313,-9.105148913574219,-0.3136404174804687,0.6057330200195312,-18.671755725190838,-47.23664122137404,0.9923664122137404,0.0
12.880000591278076,-9.97184991455078,2.2960393920898436,0.4572925170898437,-35.19083969465649,30.748091603053435,-3.6793893129770994,-8.17141026611328,2.7820623291015623,0.32082302246093747,-20.33587786259542,-43.51145038167939,-1.0229007633587786,0.0
12.890000820159912,-8.542511523437499,0.9121908325195311,0.047884033203124995,-43.954198473282446,22.259541984732824,0.2900763358778626,-7.941566906738281,2.8514941772460936,0.3112462158203125,-37.267175572519086,-31.221374045801525,-0.1984732824427481,0.0
12.90000057220459,-8.463502868652343,0.5147533569335937,0.16041151123046873,-40.33587786259542,23.603053435114504,3.0381679389312977,-8.602366564941406,0.8092401611328125,0.09337386474609374,-44.045801526717554,-21.129770992366414,2.549618320610687,0.0
12.910000801086426,-8.82263311767578,-0.7038952880859375,-0.1771709228515625,-40.595419847328245,19.893129770992367,4.641221374045801,-9.169792358398437,0.7493851196289062,-0.833182177734375,-33.80152671755725,-20.229007633587788,2.0916030534351147,0.0
12.920000553131104,-8.508992700195313,-0.6296750366210937,0.33039982910156246,-23.435114503816795,26.259541984732824,4.763358778625954,-8.683769421386717,1.2473790649414063,-0.076614453125,-39.038167938931295,-13.48091603053435,0.9770992366412213,0.0
12.93000054359436,-9.988609326171874,0.13646949462890623,1.4053963745117186,-19.755725190839694,29.587786259541986,3.7709923664122136,-8.805873706054687,-0.06703764648437499,-0.028730419921875,-34.12213740458015,-10.061068702290076,-0.9770992366412213,0.0
12.940000534057617,-10.81460889892578,0.5698199951171875,0.9193734375,-18.03053435114504,26.99236641221374,3.66412213740458,-9.315838659667968,-0.9313444458007812,0.42377369384765623,-26.47328244274809,-7.938931297709924,-1.6946564885496183,0.0
12.950000524520874,-9.05965908203125,0.086191259765625,1.2641384765625,-14.259541984732824,25.282442748091604,3.1297709923664123,-8.889670764160156,-2.1308394775390624,0.51714755859375,-5.297709923664122,-13.267175572519085,-4.687022900763359,0.0
12.96000051498413,-10.728417639160156,1.0438719238281249,1.9919757812499999,-9.511450381679388,29.0381679389313,0.6106870229007634,-9.991003527832031,-1.9536685546875,0.8882488159179687,11.526717557251908,-16.366412213740457,-7.358778625954199,0.0
12.970000505447388,-11.197681164550781,2.6144682128906247,2.01112939453125,-16.35114503816794,23.389312977099237,-0.5648854961832062,-9.562441430664062,-1.0366893188476562,0.9840168823242187,23.00763358778626,-20.793893129770993,-11.221374045801527,0.0
12.980000495910645,-9.897629663085937,1.7477672119140624,1.924938134765625,-13.038167938931299,23.16030534351145,1.3435114503816794,-8.32463917236328,0.6416460449218749,0.93852705078125,16.83969465648855,-20.671755725190838,-15.34351145038168,0.0
12.990000486373901,-10.137049829101562,3.1004911499023438,1.8938135131835936,-26.82442748091603,15.465648854961833,1.3893129770992367,-8.985438830566405,1.879448303222656,0.6344634399414062,2.6564885496183206,-11.648854961832061,-15.755725190839694,0.0
13.000000476837158,-9.713276135253906,1.5203180541992187,1.637633935546875,-27.17557251908397,12.65648854961832,4.580152671755725,-9.22485899658203,0.8786720092773437,1.4700398193359374,-6.442748091603053,-2.519083969465649,-12.793893129770993,0.0
13.010000705718994,-9.085995300292968,-0.5793968017578125,1.0989385620117187,-19.450381679389313,10.595419847328245,5.969465648854962,-9.241618408203124,1.1563994018554686,1.2641384765625,0.12213740458015267,-4.824427480916031,-12.80916030534351,0.0
13.02000093460083,-11.303026037597656,1.9632453613281249,1.8746598999023436,-7.877862595419847,14.290076335877863,2.8702290076335877,-9.68454571533203,0.6081272216796875,1.7597382202148437,1.4198473282442747,-3.877862595419847,-13.297709923664122,0.0
13.030000686645508,-9.909600671386718,0.5123591552734374,1.3072341064453123,-5.740458015267175,12.625954198473282,4.366412213740458,-9.651026892089844,0.4908113403320312,2.1595698974609374,1.5725190839694656,-3.9083969465648853,-14.885496183206106,0.0
13.040000677108765,-10.91037696533203,2.3487118286132813,1.8124106567382812,-10.01526717557252,10.564885496183207,4.091603053435114,-9.828197814941406,0.16041151123046873,1.9728221679687499,2.1068702290076335,-6.076335877862595,-15.221374045801527,0.0
13.050000667572021,-10.867281335449219,2.128445275878906,1.8243816650390623,-23.328244274809162,2.4885496183206106,5.083969465648855,-9.665392102050781,0.6416460449218749,2.0350714111328125,3.5877862595419847,-6.763358778625954,-15.755725190839694,0.0
13.0600004196167,-10.43871923828125,0.9050082275390624,1.695094775390625,-20.748091603053435,1.3740458015267176,5.984732824427481,-9.583989245605467,0.42377369384765623,2.233790148925781,4.2748091603053435,-6.412213740458015,-14.900763358778626,0.0
13.070000410079956,-10.216058483886718,0.3854664672851562,1.7405846069335937,-18.732824427480917,0.2595419847328244,5.633587786259542,-10.560823522949217,-1.5753846923828123,3.423708374023437,12.946564885496183,-7.969465648854962,-12.82442748091603,0.0
13.080000400543213,-10.189722265624999,0.17477672119140625,1.6160861206054686,-14.854961832061068,-2.0763358778625953,4.977099236641221,-10.46984385986328,-0.24181436767578124,3.0214824951171875,25.557251908396946,-16.0,-15.206106870229007,0.0
13.09000039100647,-9.87608184814453,-0.30406361083984373,1.0462661254882812,-7.709923664122138,-2.0763358778625953,4.9465648854961835,-10.510545288085936,-1.446097802734375,3.0980969482421874,33.74045801526717,-21.603053435114504,-16.427480916030536,0.0
13.100000381469727,-9.962273107910155,-0.05746083984375,0.5985504150390625,-4.305343511450381,-1.8778625954198473,3.6793893129770994,-10.893617553710937,-0.9457096557617187,3.3111808959960936,45.11450381679389,-28.045801526717558,-17.587786259541986,0.0
13.110000610351562,-9.172186560058593,-0.42377369384765623,-0.1771709228515625,-0.22900763358778625,-1.5419847328244274,1.7099236641221374,-9.5384994140625,2.1739351074218747,2.8371289672851563,36.76335877862596,-31.129770992366414,-20.778625954198475,0.0
13.12000060081482,-9.473855969238281,0.9528922607421875,-0.1005564697265625,-1.618320610687023,1.3282442748091603,-0.15267175572519084,-9.14824454345703,2.5737667846679684,3.5410242553710933,7.679389312977099,-20.564885496183205,-20.259541984732824,0.0
13.130000829696655,-9.888052856445311,2.020706201171875,-0.05985504150390625,-10.900763358778626,0.04580152671755725,-1.450381679389313,-8.664615808105468,2.925714428710937,3.0885201416015624,-12.51908396946565,-16.091603053435115,-18.213740458015266,0.0
13.140000581741333,-9.478644372558593,0.6272808349609375,-1.1827356201171875,-19.862595419847327,-5.66412213740458,0.13740458015267176,-9.708487731933593,1.2952630981445312,3.265691064453125,-14.580152671755725,-16.80916030534351,-14.290076335877863,0.0
13.15000057220459,-10.211270080566406,1.5490484741210937,-0.7398083129882812,-16.12213740458015,-0.366412213740458,-1.0687022900763359,-9.358934289550781,1.3263877197265623,3.7014357666015623,-19.709923664122137,-15.98473282442748,-14.122137404580153,0.0
13.160000562667847,-9.320627062988281,-0.9121908325195311,-1.5298948608398437,-14.473282442748092,1.2366412213740459,-0.04580152671755725,-9.512163195800781,0.1484405029296875,4.161122485351562,-20.82442748091603,-15.648854961832061,-13.923664122137405,0.0
13.170000791549683,-9.588777648925781,-0.5458779785156249,-1.1444283935546875,-4.625954198473282,8.534351145038167,-2.5343511450381677,-9.564835632324218,-1.7741034301757812,4.764461303710937,-9.740458015267176,-23.129770992366414,-13.206106870229007,0.0
13.18000054359436,-10.551246716308594,0.8738836059570312,-0.38786066894531246,-10.595419847328245,9.34351145038168,-5.7251908396946565,-10.544064111328124,-2.04943662109375,5.085284326171875,10.381679389312977,-30.641221374045802,-12.595419847328245,0.0
13.190000534057617,-9.938331091308592,-0.10295067138671875,-0.239420166015625,-9.221374045801527,10.396946564885496,-5.404580152671755,-9.789890588378906,-0.08858546142578125,3.67749375,24.290076335877863,-43.51145038167939,-15.038167938931299,0.0
13.200000524520874,-9.368511096191405,-0.05027823486328125,-0.07422025146484375,-7.282442748091603,12.50381679389313,-6.290076335877862,-7.726088757324218,2.4588451049804685,2.4061726684570313,7.679389312977099,-41.48091603053435,-17.908396946564885,0.0
13.21000051498413,-8.396465222167969,0.3902548706054687,0.17238251953125,-1.3435114503816794,16.396946564885496,-7.1603053435114505,-8.698134631347656,0.6943184814453125,2.568978381347656,-6.931297709923665,-32.29007633587786,-13.86259541984733,0.0
13.220000267028809,-9.880870251464843,1.7286135986328124,1.0007762939453124,-6.320610687022901,17.435114503816795,-8.854961832061068,-9.392453112792968,0.031124621582031248,2.7341782958984373,1.0534351145038168,-32.10687022900763,-11.007633587786259,0.0
13.230000257492065,-10.287884533691406,1.7214309936523438,0.8595183959960937,-12.091603053435115,11.068702290076336,-7.6183206106870225,-9.318232861328125,0.507570751953125,2.6886884643554687,5.297709923664122,-34.0763358778626,-12.335877862595419,0.0
13.240000486373901,-9.603142858886718,1.2976572998046874,0.5219359619140624,-8.854961832061068,10.473282442748092,-5.8320610687022905,-8.382100012207031,1.6017209106445311,2.81558115234375,-6.320610687022901,-27.129770992366414,-15.145038167938932,0.0
13.250000476837158,-9.574412438964844,1.5346832641601562,0.4740519287109375,-8.83969465648855,10.870229007633588,-4.870229007633588,-8.920795385742187,-0.06943184814453125,2.3630770385742186,-19.51145038167939,-18.244274809160306,-14.076335877862595,0.0
13.260000944137573,-9.02135185546875,0.47165772705078124,0.12449848632812499,-7.038167938931298,11.32824427480916,-3.5572519083969465,-8.128314636230469,0.5770026000976562,2.3439234252929686,-22.458015267175572,-15.86259541984733,-13.251908396946565,0.0
13.270000457763672,-9.112331518554686,-1.01514150390625,-0.009576806640625,13.358778625954198,20.53435114503817,-4.3816793893129775,-8.750807067871094,-0.7829039428710937,2.3439234252929686,-17.46564885496183,-13.419847328244275,-12.748091603053435,0.0
13.280000925064087,-8.027758166503906,-0.22505495605468748,-0.4261678955078125,20.68702290076336,23.31297709923664,-7.068702290076335,-8.690952026367187,-1.0582371337890624,2.389413256835937,-9.404580152671755,-11.923664122137405,-13.572519083969466,0.0
13.290000438690186,-9.528922607421874,0.6703764648437499,0.17238251953125,19.770992366412212,25.709923664122137,-9.374045801526718,-8.951920007324219,-1.879448303222656,2.712630480957031,-0.5801526717557252,-10.748091603053435,-14.030534351145038,0.0
13.300000667572021,-9.437942944335937,0.19632453613281248,0.2753331909179687,18.061068702290076,28.519083969465647,-10.061068702290076,-8.427589843749999,-1.6017209106445311,1.714248388671875,16.564885496183205,-17.69465648854962,-16.0,0.0
13.3100004196167,-9.600748657226562,1.1133037719726562,0.4955997436523437,20.33587786259542,30.290076335877863,-12.381679389312977,-8.705317236328124,-1.7884686401367187,1.8243816650390623,23.435114503816795,-15.633587786259541,-17.114503816793892,0.0
13.320000648498535,-9.909600671386718,1.6519991455078125,0.9337386474609375,12.992366412213741,29.129770992366414,-13.770992366412214,-8.317456567382813,-1.7334020019531249,2.379836450195312,37.25190839694657,-18.244274809160306,-17.587786259541986,0.0
13.330000638961792,-10.141838232421874,0.4908113403320312,1.2928688964843749,13.053435114503817,29.709923664122137,-13.954198473282442,-8.82981572265625,-1.2569558715820313,2.6001030029296874,49.954198473282446,-19.251908396946565,-17.374045801526716,0.0
13.340000629425049,-10.175357055664062,0.7613561279296874,1.4939818359375,15.48091603053435,30.47328244274809,-15.48091603053435,-7.809885815429687,-0.5530605834960938,2.051830822753906,57.282442748091604,-22.229007633587788,-19.00763358778626,0.0
13.350000619888306,-9.715670336914062,1.3551181396484375,1.1516109985351561,11.435114503816793,27.740458015267176,-16.946564885496183,-6.030993981933594,1.848323681640625,1.7286135986328124,47.404580152671755,-17.16030534351145,-21.52671755725191,0.0
13.360000610351562,-10.251971508789062,0.8379705810546875,1.618480322265625,9.572519083969466,25.0381679389313,-15.465648854961833,-5.849034655761718,2.3582886352539063,1.1156979736328125,28.625954198473284,-4.152671755725191,-19.770992366412212,0.0
13.37000036239624,-10.486603271484375,0.6057330200195312,2.2744915771484373,11.541984732824428,24.53435114503817,-15.374045801526718,-8.532934716796875,-0.5913678100585937,1.889025109863281,32.396946564885496,2.7480916030534353,-13.877862595419847,0.0
13.380000352859497,-10.314220751953124,0.2154781494140625,2.442085693359375,15.84732824427481,21.740458015267176,-16.748091603053435,-7.723694555664062,0.2825157958984375,2.0829554443359375,37.86259541984733,4.931297709923665,-15.282442748091603,0.0
13.390000820159912,-10.266336718749999,-0.02154781494140625,2.3511060302734372,22.427480916030536,17.51145038167939,-16.763358778625953,-7.7787611938476555,-0.35673604736328124,2.0566192260742184,39.20610687022901,7.251908396946565,-16.458015267175572,0.0
13.400000810623169,-10.409988818359375,0.06703764648437499,2.8012159423828122,29.46564885496183,16.091603053435115,-18.48854961832061,-7.843404638671874,-0.8667010009765624,2.128445275878906,39.74045801526717,9.98473282442748,-17.862595419847327,0.0
13.410000801086426,-11.372457885742186,1.0223241088867188,3.478775012207031,29.908396946564885,11.725190839694656,-19.587786259541986,-7.568071447753906,-0.9888052856445312,2.059013427734375,41.23664122137404,12.412213740458014,-19.389312977099237,0.0
13.420000314712524,-10.108319409179687,1.8459294799804686,3.909731311035156,30.061068702290076,4.0,-18.198473282442748,-5.9208607055664055,1.0390835205078124,1.1156979736328125,35.11450381679389,14.030534351145038,-22.244274809160306,0.0
13.43000054359436,-10.563217724609375,2.3918074584960936,4.0988732421875,24.9618320610687,-1.4961832061068703,-16.65648854961832,-6.864176159667968,-0.44053310546874996,2.0087351928710935,29.16030534351145,26.015267175572518,-19.740458015267176,0.0
13.440000534057617,-10.89840595703125,2.6791116577148437,4.096479040527344,14.83969465648855,-12.488549618320612,-14.106870229007633,-7.979874133300781,0.38307226562499996,1.7405846069335937,30.916030534351144,27.46564885496183,-19.46564885496183,0.0
13.450000762939453,-10.678139404296875,1.5897499023437498,3.842693664550781,16.641221374045802,-19.46564885496183,-10.793893129770993,-7.012616662597656,2.1787235107421874,2.473210314941406,26.091603053435115,30.870229007633586,-20.610687022900763,0.0
13.460000276565552,-10.441113439941406,1.448492004394531,3.69664736328125,20.366412213740457,-23.61832061068702,-8.16793893129771,-7.0461354858398435,2.923320227050781,2.8203695556640622,10.335877862595419,36.10687022900763,-21.572519083969464,0.0
13.470000505447388,-10.606313354492187,1.8435352783203125,3.8235400512695312,20.290076335877863,-28.778625954198475,-7.312977099236641,-7.7787611938476555,2.96881005859375,3.392583752441406,-10.83969465648855,45.770992366412216,-19.954198473282442,0.0
13.480000495910645,-10.342951171874999,0.9193734375,3.299209887695312,20.977099236641223,-35.48091603053435,-5.068702290076335,-11.805808386230469,0.258573779296875,5.159504577636718,-5.6183206106870225,48.56488549618321,-14.061068702290076,0.0
13.490000486373901,-10.137049829101562,0.2442085693359375,3.0980969482421874,29.374045801526716,-41.3587786259542,-5.938931297709924,-14.669273571777342,0.5363011718749999,6.947973217773437,-4.99236641221374,39.16030534351145,-18.33587786259542,0.0
13.500000476837158,-10.635043774414061,1.1420341918945311,3.2824504760742186,29.51145038167939,-46.778625954198475,-6.656488549618321,-15.145719702148437,0.0430956298828125,7.0102224609374995,-23.740458015267176,37.603053435114504,-23.419847328244273,0.0
13.510000705718994,-7.4770917846679685,-2.3535002319335936,2.4301146850585935,36.85496183206107,-53.02290076335878,-4.854961832061068,-16.728286999511717,-4.369418029785156,6.344634399414062,-15.236641221374045,30.16793893129771,-18.229007633587788,0.0
13.52000093460083,-10.556035119628906,-1.8507178833007811,2.8012159423828122,53.11450381679389,-50.35114503816794,-7.603053435114504,-13.692439294433592,-2.1260510742187497,2.0542250244140625,8.916030534351146,9.206106870229007,-15.49618320610687,0.0
13.530000686645508,-10.89840595703125,1.9943699829101562,3.105279553222656,39.52671755725191,-62.38167938931298,-7.847328244274809,-9.883264453125,0.5674257934570313,0.3591302490234375,10.091603053435115,3.4198473282442747,-14.732824427480915,0.0
13.540000677108765,-12.212822668457031,2.051830822753906,4.53940634765625,22.045801526717558,-72.70229007633588,-6.5038167938931295,-8.252813122558594,0.7541735229492187,1.0558429321289062,-2.763358778625954,9.633587786259541,-9.038167938931299,0.0
13.550000429153442,-12.849680310058593,0.14604630126953125,5.183446594238281,19.053435114503817,-85.31297709923665,-1.465648854961832,-9.167398156738281,-0.612915625,2.138022082519531,1.984732824427481,9.725190839694656,-1.7557251908396947,0.0
13.560000658035278,-13.936647863769531,-1.7429788085937499,4.714183068847656,28.412213740458014,-97.09923664122137,0.9007633587786259,-9.907206469726562,-1.6352397338867186,1.936909143066406,15.83206106870229,3.267175572519084,-0.13740458015267176,0.0
13.570000648498535,-14.949395166015623,-2.518700146484375,3.881000891113281,38.33587786259542,-105.09923664122137,0.15267175572519084,-8.71489404296875,-1.2904746948242187,1.0319009155273438,19.801526717557252,0.6564885496183206,-5.068702290076335,0.0
13.580000638961792,-15.255852978515625,-2.6575638427734374,3.0837317382812497,40.10687022900763,-114.59541984732824,-2.763358778625954,-9.320627062988281,-2.2098481323242187,0.7613561279296874,19.374045801526716,5.541984732824427,-7.526717557251908,0.0
13.590000629425049,-14.51125626220703,-2.473210314941406,2.4564509033203126,40.18320610687023,-120.82442748091603,-6.885496183206107,-8.458714465332031,-1.6256629272460936,0.4740519287109375,18.900763358778626,11.17557251908397,-8.580152671755725,0.0
13.600000619888306,-13.843273999023436,-2.2768857788085937,1.905784521484375,41.87786259541985,-126.41221374045801,-7.694656488549619,-9.6151138671875,-1.3575123413085937,1.254561669921875,22.3206106870229,21.755725190839694,-7.572519083969466,0.0
13.61000108718872,-12.205640063476562,-2.138022082519531,1.0462661254882812,45.3587786259542,-130.73282442748092,-5.908396946564886,-8.607154968261717,-0.7230489013671875,0.3280056274414062,23.129770992366414,24.16793893129771,-8.50381679389313,0.0
13.62000036239624,-10.386046801757812,-1.5705962890624998,0.8283937744140625,51.70992366412214,-132.35114503816794,-3.0381679389312977,-8.588001354980468,0.2753331909179687,0.19871873779296872,17.389312977099237,34.3206106870229,-9.145038167938932,0.0
13.630000829696655,-10.89840595703125,-1.1037269653320312,1.6424223388671875,52.045801526717554,-133.05343511450383,-1.8778625954198473,-9.370905297851563,-2.1643583007812497,0.9792284790039062,17.740458015267176,43.05343511450382,-4.793893129770993,0.0
13.640000581741333,-10.220846887207031,-2.5665841796874997,0.7924807495117187,60.83969465648855,-132.73282442748092,-1.0534351145038168,-11.018116040039061,-3.845087866210937,1.0271125122070313,34.534351145038165,40.94656488549618,-3.66412213740458,0.0
13.650000810623169,-9.576806640625,-2.5737667846679684,-0.21068974609375,66.06106870229007,-129.81679389312978,-4.198473282442748,-10.172962854003906,-2.4013842651367185,0.4070142822265625,45.49618320610687,33.87786259541985,-9.19083969465649,0.0
13.660000562667847,-11.398794104003905,-0.699106884765625,0.47165772705078124,55.786259541984734,-122.54961832061069,-9.053435114503817,-9.988609326171874,-1.4053963745117186,0.8212111694335937,42.29007633587786,37.14503816793893,-10.381679389312977,0.0
13.670000791549683,-11.010933435058593,2.3630770385742186,-0.00718260498046875,26.198473282442748,-125.23664122137404,-14.351145038167939,-10.864887133789061,-1.6304513305664061,1.1252747802734375,37.64885496183206,41.847328244274806,-5.816793893129771,0.0
13.68000054359436,-10.73799444580078,0.3950432739257812,0.02154781494140625,12.320610687022901,-123.09923664122137,-11.49618320610687,-12.07874737548828,-1.4700398193359374,0.8906430175781249,39.343511450381676,41.74045801526717,-1.3587786259541985,0.0
13.690000534057617,-10.496180078124999,-0.6727706665039062,-1.0510545288085937,14.412213740458014,-111.25190839694656,-10.351145038167939,-9.91438907470703,-0.70868369140625,0.6751648681640625,41.06870229007634,35.48091603053435,-2.0916030534351147,0.0
13.700000524520874,-9.550470422363281,-1.407790576171875,-1.2761094848632812,14.67175572519084,-103.22137404580153,-9.786259541984732,-10.249577307128906,-1.16837041015625,0.7517793212890624,50.50381679389313,30.33587786259542,-2.33587786259542,0.0
13.71000051498413,-9.208099584960937,-1.1037269653320312,-0.5722141967773438,19.755725190839694,-87.78625954198473,-9.236641221374045,-9.320627062988281,-0.40940848388671874,0.5722141967773438,42.12213740458015,31.49618320610687,-1.3587786259541985,0.0
13.720000267028809,-8.14028564453125,-1.6112977172851561,-0.18914193115234373,21.954198473282442,-77.29770992366412,-8.473282442748092,-9.119514123535156,-0.6105214233398437,0.7685387329101562,38.0,33.89312977099237,0.366412213740458,0.0
13.730000495910645,-6.967126831054687,-1.9991583862304687,-0.70868369140625,30.931297709923665,-64.61068702290076,-7.587786259541985,-7.951143713378905,0.32561142578124996,0.3447650390625,30.396946564885496,33.87786259541985,1.2366412213740459,0.0
13.74000096321106,-6.215347509765625,-1.2928688964843749,-0.7326257080078125,37.83206106870229,-50.70229007633588,-7.404580152671755,-7.493851196289062,1.0390835205078124,-0.0143652099609375,19.770992366412212,37.282442748091604,2.2442748091603053,0.0
13.750000476837158,-5.6574985229492185,-1.1109095703125,-0.948103857421875,40.44274809160305,-38.06106870229008,-6.931297709923665,-8.003816149902343,1.6112977172851561,0.28012159423828126,5.862595419847328,45.9236641221374,4.6106870229007635,0.0
13.760000944137573,-4.747701892089843,-0.3591302490234375,-0.8283937744140625,46.94656488549618,-23.17557251908397,-5.770992366412214,-4.479551306152343,3.6176387084960937,-2.2098481323242187,-17.603053435114504,47.404580152671755,3.4656488549618323,0.0
13.770000457763672,-3.9839515624999997,-1.177947216796875,-1.43652099609375,45.70992366412214,-11.923664122137405,-4.488549618320611,-8.276755139160155,0.55545478515625,-0.70868369140625,-33.282442748091604,64.7175572519084,11.923664122137405,0.0
13.780000925064087,-6.095637426757812,1.7501614135742187,0.9983820922851562,41.847328244274806,6.900763358778626,-8.091603053435115,-9.028534460449219,-0.622492431640625,0.6655880615234374,-35.282442748091604,71.29770992366412,15.221374045801527,0.0
13.790000677108765,-7.42441934814453,3.3710359375,1.0630255371093749,14.458015267175572,2.7480916030534353,-9.312977099236642,-10.907982763671875,-3.2824504760742186,0.9576806640625,-24.519083969465647,70.90076335877863,17.84732824427481,0.0
13.8000009059906,-5.511452221679687,0.9026140258789062,0.8810662109374999,7.282442748091603,10.793893129770993,-2.0916030534351147,-9.588777648925781,-1.8555062866210936,0.5865794067382812,-14.458015267175572,60.274809160305345,14.01526717557252,0.0
13.8100004196167,-4.953603234863281,0.12210428466796874,0.411802685546875,8.992366412213741,18.045801526717558,-0.7175572519083969,-9.718064538574218,-2.1643583007812497,0.3136404174804687,-18.15267175572519,63.7557251908397,14.83969465648855,0.0
13.820000648498535,-3.6727053466796873,-1.0295067138671874,-0.01915361328125,15.022900763358779,29.87786259541985,1.618320610687023,-10.012551342773437,-2.73896669921875,0.6416460449218749,-3.7404580152671754,60.152671755725194,16.702290076335878,0.0
13.830000877380371,-4.280832568359375,0.26815058593749996,0.4213794921875,17.72519083969466,42.47328244274809,-2.854961832061069,-10.802637890625,-2.6886884643554687,1.4796166259765624,0.5190839694656488,60.74809160305343,17.801526717557252,0.0
13.84000039100647,-5.039794494628906,0.25139117431640623,0.9816226806640624,12.458015267175572,53.14503816793893,-3.2519083969465647,-11.061211669921875,-4.551377355957031,2.346317626953125,23.81679389312977,51.98473282442748,19.419847328244273,0.0
13.850000619888306,-5.195417602539062,-0.4213794921875,1.3814543579101561,10.412213740458014,62.3206106870229,-5.969465648854962,-12.761094848632812,-5.0014872680664055,2.8754361938476563,50.19847328244275,43.267175572519086,18.458015267175572,0.0
13.860000371932983,-5.3199160888671875,-0.03591302490234375,2.128445275878906,10.076335877862595,71.08396946564885,-7.694656488549619,-9.832986218261718,-0.3711012573242187,1.4532804077148436,51.786259541984734,34.152671755725194,10.80916030534351,0.0
13.870001077651978,-6.785167504882812,1.0821791503906248,3.4668040039062498,0.5343511450381679,76.27480916030534,-9.450381679389313,-10.36210478515625,-1.2114660400390624,1.7525556152343749,43.61832061068702,35.7557251908397,12.549618320610687,0.0
13.880000352859497,-7.247248425292969,0.4572925170898437,4.515464331054687,-9.969465648854962,77.64885496183206,-8.366412213740459,-10.232817895507813,-1.4724340209960938,1.936909143066406,48.274809160305345,30.916030534351144,15.19083969465649,0.0
13.890001058578491,-7.867346655273437,0.7230489013671875,6.002263562011718,-12.01526717557252,78.73282442748092,-5.7251908396946565,-9.6151138671875,1.2737152832031249,1.7286135986328124,38.99236641221374,31.19083969465649,13.969465648854962,0.0
13.90000057220459,-8.724470849609375,1.1563994018554686,7.445967163085937,-14.030534351145038,77.19083969465649,-1.9236641221374047,-9.392453112792968,0.41419688720703124,1.7334020019531249,29.633587786259543,32.35114503816794,16.15267175572519,0.0
13.910000801086426,-9.612719665527344,1.2761094848632812,8.975862023925782,-14.488549618320612,72.22900763358778,0.6717557251908397,-9.8449572265625,-0.17956512451171874,1.9225439331054686,25.17557251908397,32.030534351145036,17.541984732824428,0.0
13.920000314712524,-10.156203442382813,0.5889736083984375,9.473855969238281,-8.854961832061068,67.40458015267176,5.419847328244275,-9.131485131835937,0.4525041137695312,1.3287819213867187,17.770992366412212,29.87786259541985,16.16793893129771,0.0
13.93000054359436,-11.231199987792968,1.2904746948242187,10.158597644042969,-5.129770992366412,60.778625954198475,8.458015267175572,-10.122684619140625,-1.618480322265625,5.394136340332031,14.549618320610687,39.45038167938932,19.450381679389313,0.0
13.940000534057617,-11.068394274902342,0.9169792358398436,9.6151138671875,-2.6259541984732824,50.412213740458014,11.694656488549619,-9.306261853027344,-1.0366893188476562,2.31758720703125,15.358778625954198,26.259541984732824,18.15267175572519,0.0
13.950000524520874,-10.797849487304687,1.0726023437499999,9.296685046386719,-0.8549618320610687,41.06870229007634,13.618320610687023,-8.801085302734375,-0.430956298828125,2.2170307373046874,1.4961832061068703,26.366412213740457,16.85496183206107,0.0
13.96000051498413,-8.52335791015625,-3.3016040893554686,6.038176586914062,1.1603053435114503,26.3206106870229,18.625954198473284,-9.562441430664062,-1.0965443603515623,2.5617957763671875,-4.519083969465649,27.022900763358777,19.19083969465649,0.0
13.970000505447388,-10.75714805908203,-1.956062756347656,6.928819604492187,15.19083969465649,33.70992366412214,13.664122137404581,-11.164162341308593,-1.3910311645507811,2.2266075439453124,-8.122137404580153,25.83206106870229,21.0381679389313,0.0
13.980000495910645,-12.059593762207031,0.928950244140625,6.023811376953125,7.099236641221374,21.72519083969466,9.450381679389313,-9.643844287109374,-0.19153613281249998,0.7038952880859375,-13.48091603053435,16.717557251908396,18.48854961832061,0.0
13.990000486373901,-11.686098303222655,-0.5530605834960938,4.024652990722656,4.763358778625954,15.450381679389313,11.801526717557252,-10.17056865234375,0.277727392578125,0.6679822631835937,-27.16030534351145,17.633587786259543,19.450381679389313,0.0
14.000000476837158,-12.74912384033203,-0.076614453125,3.6559459350585937,3.8473282442748094,12.320610687022901,15.86259541984733,-10.984597216796875,-1.9201497314453124,2.0302830078125,-37.725190839694655,21.69465648854962,24.290076335877863,0.0
14.010000467300415,-13.244723583984374,-1.7166425903320313,4.04141240234375,14.13740458015267,13.587786259541986,22.519083969465647,-10.694898815917968,-2.2026655273437497,2.001552587890625,-33.37404580152672,15.16030534351145,23.053435114503817,0.0
14.02000093460083,-12.188880651855468,-1.889025109863281,4.058171813964844,36.717557251908396,17.31297709923664,23.984732824427482,-12.48097325439453,-3.7924154296875,0.9720458740234375,-25.6793893129771,8.916030534351146,22.03053435114504,0.0
14.030000686645508,-12.330138549804687,-0.23702596435546874,4.537012145996093,36.19847328244275,17.236641221374047,19.572519083969464,-10.951078393554686,-2.01112939453125,1.7980454467773437,-9.740458015267176,-5.221374045801527,16.259541984732824,0.0
14.040000438690186,-10.117896215820313,0.9696516723632812,4.450820886230469,26.061068702290076,12.16793893129771,16.946564885496183,-9.658209497070311,-0.44532150878906246,1.37906015625,-15.404580152671755,-10.366412213740459,13.34351145038168,0.0
14.0500009059906,-9.90241806640625,2.427720483398437,3.84987626953125,3.2213740458015265,6.656488549618321,12.870229007633588,-9.938331091308592,0.0430956298828125,0.8044517578125,-18.53435114503817,-12.67175572519084,13.877862595419847,0.0
14.060000658035278,-8.8489693359375,2.7269956909179687,2.2768857788085937,-17.923664122137403,-1.633587786259542,9.450381679389313,-10.366893188476562,1.0079588989257813,0.41419688720703124,-23.709923664122137,-15.312977099236642,14.946564885496183,0.0
14.070000886917114,-7.805097412109374,1.9680337646484374,1.0678139404296874,-17.81679389312977,1.4961832061068703,10.564885496183207,-11.027692846679686,1.1468225952148436,0.430956298828125,-26.9618320610687,-16.290076335877863,16.82442748091603,0.0
14.080000400543213,-7.644685900878906,3.1411925781249996,-0.6177040283203125,-25.709923664122137,2.931297709923664,9.908396946564885,-10.20169327392578,1.9321207397460936,-0.2753331909179687,-31.709923664122137,-22.900763358778626,16.03053435114504,0.0
14.090000629425049,-7.400477331542969,2.645592834472656,-2.01112939453125,-35.541984732824424,6.67175572519084,12.717557251908397,-12.358868969726561,1.0558429321289062,0.3806780639648437,-32.38167938931298,-22.229007633587788,19.450381679389313,0.0
14.100000619888306,-7.182604980468749,0.967257470703125,-2.549824768066406,-43.05343511450382,13.053435114503817,14.01526717557252,-12.334926953124999,1.2401964599609374,0.7972691528320313,-31.49618320610687,-28.519083969465647,18.65648854961832,0.0
14.110000610351562,-5.272032055664062,-2.300827795410156,-2.6216508178710938,-31.46564885496183,25.450381679389313,14.16793893129771,-11.444283935546874,2.1643583007812497,-0.2825157958984375,-36.900763358778626,-35.29770992366412,15.740458015267176,0.0
14.12000036239624,-7.134720947265625,-0.5722141967773438,-1.0414777221679687,-20.946564885496183,42.656488549618324,8.458015267175572,-11.444283935546874,2.6312276245117188,0.009576806640625,-47.00763358778626,-34.70229007633588,14.15267175572519,0.0
14.130000352859497,-8.487444885253906,-0.07422025146484375,-0.2753331909179687,-21.297709923664122,49.25190839694657,5.6183206106870225,-11.927912670898436,2.43250888671875,0.3447650390625,-61.770992366412216,-31.267175572519083,13.511450381679388,0.0
14.140000343322754,-9.265560424804686,0.3327940307617187,0.679953271484375,-17.984732824427482,54.274809160305345,6.1679389312977095,-11.690886706542969,1.5753846923828123,-0.17956512451171874,-56.229007633587784,-36.97709923664122,13.587786259541986,0.0
14.15000057220459,-9.801861596679688,0.5674257934570313,1.0726023437499999,-13.83206106870229,55.66412213740458,4.9465648854961835,-12.061987963867187,0.15083470458984374,1.5777788940429687,-50.274809160305345,-38.76335877862596,13.49618320610687,0.0
14.160000562667847,-10.678139404296875,1.4604630126953124,0.8020575561523438,-15.114503816793894,54.61068702290076,4.580152671755725,-12.593500732421875,-1.0438719238281249,2.27927998046875,-33.87786259541985,-46.54961832061068,10.83969465648855,0.0
14.170000553131104,-10.51533369140625,2.0973206542968748,1.3335703247070312,-17.31297709923664,52.44274809160305,2.6106870229007635,-12.133814013671874,-0.316034619140625,1.3335703247070312,-21.938931297709924,-61.52671755725191,5.099236641221374,0.0
14.180000305175781,-10.235212097167969,2.272097375488281,0.5363011718749999,-28.53435114503817,45.603053435114504,0.732824427480916,-10.359710583496094,1.4532804077148436,0.19153613281249998,-26.091603053435115,-68.56488549618321,-0.22900763358778625,0.0
14.190000534057617,-9.473855969238281,0.8307879760742187,0.26815058593749996,-30.946564885496183,44.80916030534351,1.3435114503816794,-10.8409451171875,1.1133037719726562,1.235408056640625,-35.099236641221374,-65.34351145038168,-0.549618320610687,0.0
14.200000524520874,-10.812214697265624,1.2282254516601563,0.4285620971679687,-32.61068702290076,44.54961832061068,-0.7480916030534351,-10.17056865234375,-0.181959326171875,1.4796166259765624,-34.88549618320611,-66.83969465648855,-1.9541984732824427,0.0
14.21000051498413,-9.536105212402344,0.316034619140625,0.05027823486328125,-31.770992366412212,40.94656488549618,-1.7251908396946565,-10.582371337890624,-0.4836287353515625,2.868253588867187,-31.236641221374047,-65.41984732824427,-2.9618320610687023,0.0
14.220000505447388,-10.977414611816405,1.2569558715820313,0.6105214233398437,-29.893129770992367,42.152671755725194,-3.0076335877862594,-8.693346228027343,0.6344634399414062,2.061407629394531,-31.66412213740458,-68.87022900763358,-4.656488549618321,0.0
14.230000257492065,-9.962273107910155,0.86191259765625,0.08379705810546874,-34.961832061068705,36.13740458015267,-2.3053435114503817,-9.244012609863281,0.411802685546875,1.659181750488281,-23.236641221374047,-71.41984732824427,-5.190839694656488,0.0
14.240000486373901,-9.842563024902343,0.8643067993164062,0.4285620971679687,-32.18320610687023,36.79389312977099,-2.33587786259542,-7.850587243652344,3.265691064453125,0.8355763793945312,-36.68702290076336,-69.6793893129771,-6.091603053435114,0.0
14.250000238418579,-10.366893188476562,1.6615759521484375,0.47165772705078124,-38.13740458015267,32.97709923664122,-1.5877862595419847,-9.327809667968749,0.46686932373046874,1.2808978881835937,-39.12977099236641,-60.51908396946565,-2.8091603053435112,0.0
14.260000705718994,-10.453084448242187,0.22744915771484372,0.3806780639648437,-37.64885496183206,30.793893129770993,0.07633587786259542,-9.502586389160156,0.6847416748046875,1.197100830078125,-21.358778625954198,-66.29007633587786,-2.3206106870229006,0.0
14.270000696182251,-9.361328491210937,0.6943184814453125,0.7565677246093749,-30.564885496183205,30.702290076335878,2.0,-7.44357296142578,3.469198205566406,-0.33039982910156246,-36.2442748091603,-65.34351145038168,-4.534351145038168,0.0
14.280000925064087,-11.130643518066405,1.7717092285156248,0.7661445312499999,-37.86259541984733,27.46564885496183,3.0076335877862594,-8.633491186523438,1.429338391113281,0.5746083984375,-41.465648854961835,-51.603053435114504,-0.015267175572519083,0.0
14.290000677108765,-10.89122335205078,1.1659762084960936,0.737414111328125,-38.0763358778626,24.106870229007633,5.022900763358779,-10.759542260742187,-1.3623007446289062,1.0031704956054688,-14.82442748091603,-56.19847328244275,1.984732824427481,0.0
14.300000667572021,-10.388441003417968,1.1516109985351561,0.8906430175781249,-35.12977099236641,22.12213740458015,4.6106870229007635,-9.165003955078124,2.4492682983398435,-0.02633621826171875,-14.259541984732824,-59.31297709923664,-2.717557251908397,0.0
14.310000658035278,-9.72285294189453,0.2825157958984375,0.9193734375,-27.31297709923664,26.091603053435115,5.282442748091603,-8.410830432128906,2.2026655273437497,-0.39264907226562495,-35.06870229007634,-46.61068702290076,-3.267175572519084,0.0
14.320000410079956,-10.105925207519531,0.5865794067382812,0.9864110839843749,-35.343511450381676,20.106870229007633,4.3816793893129775,-10.31661495361328,-0.23702596435546874,0.4572925170898437,-24.229007633587788,-40.25954198473283,-1.0687022900763359,0.0
14.330000400543213,-10.709264025878905,0.59376201171875,1.3192051147460937,-23.297709923664122,23.770992366412212,2.1374045801526718,-10.58476553955078,-0.28969840087890625,0.4955997436523437,-9.465648854961833,-45.02290076335878,-3.2061068702290076,0.0
14.340000629425049,-9.794678991699218,0.8499415893554687,0.70868369140625,-30.259541984732824,16.885496183206108,1.633587786259542,-7.79552060546875,3.8187516479492185,-0.9935936889648437,-21.267175572519083,-44.62595419847328,-10.091603053435115,0.0
14.350000619888306,-10.043675964355469,1.6304513305664061,0.8882488159179687,-29.16030534351145,17.893129770992367,2.381679389312977,-9.253589416503905,1.7597382202148437,0.32561142578124996,-40.0763358778626,-27.64885496183206,-7.862595419847328,0.0
14.360000610351562,-9.583989245605467,0.9552864624023437,0.8810662109374999,-29.267175572519083,16.9618320610687,2.2595419847328246,-9.821015209960937,-1.005564697265625,0.040701428222656245,-35.29770992366412,-25.69465648854962,-7.190839694656488,0.0
14.37000036239624,-10.05564697265625,0.8690952026367187,0.6440402465820312,-24.732824427480917,16.076335877862597,1.6030534351145038,-11.06360587158203,-2.0973206542968748,1.3910311645507811,-14.16793893129771,-28.259541984732824,-9.083969465648854,0.0
14.380000591278076,-8.578424548339843,-1.5035586425781249,-0.32082302246093747,-12.244274809160306,17.099236641221374,2.6106870229007635,-10.117896215820313,-0.9241618408203125,1.4125789794921875,-0.8396946564885496,-34.12213740458015,-13.450381679389313,0.0
14.390000581741333,-10.43871923828125,2.3965958618164063,0.8259995727539062,-10.702290076335878,21.541984732824428,-1.4045801526717556,-8.56166513671875,1.4891934326171874,0.5865794067382812,-6.870229007633588,-34.74809160305343,-17.740458015267176,0.0
14.40000057220459,-9.957484704589843,2.2960393920898436,1.216254443359375,-20.83969465648855,19.557251908396946,0.5801526717557252,-9.160215551757812,1.1444283935546875,1.1851298217773436,-18.778625954198475,-23.954198473282442,-16.3206106870229,0.0
14.410000801086426,-10.149020837402343,2.3415292236328122,1.3742717529296875,-31.572519083969464,14.412213740458014,2.351145038167939,-9.849745629882811,-0.6871358764648438,0.7278373046875,-12.51908396946565,-22.671755725190838,-12.885496183206106,0.0
14.420000553131104,-10.448296044921875,1.3287819213867187,1.4125789794921875,-30.259541984732824,14.274809160305344,3.1603053435114505,-11.03248125,-1.649604943847656,2.243366955566406,6.580152671755725,-25.206106870229007,-12.351145038167939,0.0
14.430000305175781,-10.079588989257813,0.8547299926757812,0.8978256225585937,-27.022900763358777,12.931297709923664,2.4122137404580153,-9.665392102050781,-0.14604630126953125,1.9776105712890624,18.396946564885496,-32.10687022900763,-16.610687022900763,0.0
14.440000534057617,-9.701305126953125,0.6440402465820312,0.7302315063476562,-23.49618320610687,14.870229007633588,1.633587786259542,-8.070853796386718,1.4867992309570313,1.1013327636718748,7.755725190839694,-29.938931297709924,-20.3206106870229,0.0
14.450000524520874,-9.883264453125,1.3192051147460937,0.9097966308593749,-27.572519083969464,14.16793893129771,1.786259541984733,-6.797138513183594,2.090138049316406,0.5339069702148437,-8.854961832061068,-22.916030534351144,-20.12213740458015,0.0
14.46000051498413,-9.526528405761718,1.0223241088867188,0.7829039428710937,-27.46564885496183,13.954198473282442,1.6030534351145038,-8.480262280273436,1.1037269653320312,1.0630255371093749,-11.267175572519085,-14.82442748091603,-16.625954198473284,0.0
14.470000505447388,-9.6917283203125,0.9983820922851562,0.5865794067382812,-28.717557251908396,12.229007633587786,0.5038167938931297,-9.315838659667968,-0.5434837768554687,2.4875755249023435,-8.778625954198473,-8.427480916030534,-14.351145038167939,0.0
14.480000257492065,-10.036493359375,0.4908113403320312,0.34237083740234375,-28.015267175572518,10.534351145038167,0.030534351145038167,-10.036493359375,-1.1468225952148436,3.1507693847656246,10.274809160305344,-13.450381679389313,-15.770992366412214,0.0
14.490000486373901,-9.892841259765625,0.3280056274414062,0.26815058593749996,-21.267175572519083,11.679389312977099,-1.1755725190839694,-9.423577734375,-1.4963760375976562,2.3151930053710936,18.80916030534351,-18.625954198473284,-17.633587786259543,0.0
14.500000238418579,-9.543287817382812,0.016759411621093748,0.316034619140625,-16.717557251908396,12.702290076335878,-1.4961832061068703,-8.927977990722656,-0.8834604125976562,2.138022082519531,30.870229007633586,-22.916030534351144,-19.603053435114504,0.0
14.510000705718994,-9.433154541015625,0.40940848388671874,0.3280056274414062,-13.099236641221374,13.98473282442748,-1.5419847328244274,-7.709329345703124,2.1212626708984375,2.051830822753906,22.595419847328245,-19.72519083969466,-22.442748091603054,0.0
14.52000093460083,-9.756371765136718,1.1635820068359375,0.5434837768554687,-15.358778625954198,14.076335877862595,-1.2061068702290076,-7.675810522460937,1.9919757812499999,1.5945383056640625,0.9618320610687023,-7.480916030534351,-20.977099236641223,0.0
14.53004264831543,-9.610325463867188,0.29927520751953124,0.3016694091796875,-12.580152671755725,14.16793893129771,-0.5038167938931297,-8.913612780761719,0.6105214233398437,2.5354595581054684,-3.816793893129771,1.4961832061068703,-15.34351145038168,0.0
14.540000677108765,-9.782707983398437,0.9097966308593749,0.5267243652343749,-12.82442748091603,13.679389312977099,-2.366412213740458,-8.449137658691406,1.388636962890625,2.5953145996093747,1.5419847328244274,-1.083969465648855,-14.687022900763358,0.0
14.550000429153442,-10.019733947753906,0.8667010009765624,0.4285620971679687,-13.236641221374045,12.15267175572519,-3.267175572519084,-8.667010009765624,0.41419688720703124,2.578555187988281,0.7022900763358778,1.984732824427481,-13.938931297709924,0.0
14.560000658035278,-9.739612353515625,0.23223756103515625,0.2920926025390625,-11.374045801526718,12.335877862595419,-3.66412213740458,-8.911218579101561,0.2346317626953125,2.7940333374023436,2.2442748091603053,4.3816793893129775,-13.145038167938932,0.0
14.570000410079956,-9.753977563476562,0.33518823242187495,0.3902548706054687,-9.053435114503817,13.022900763358779,-4.763358778625954,-8.415618835449218,0.5482721801757812,2.4779987182617185,2.122137404580153,6.122137404580153,-12.534351145038167,0.0
14.580000638961792,-9.60793126220703,0.30885201416015623,0.3184288208007812,-6.961832061068702,13.19083969465649,-5.969465648854962,-8.870517150878905,0.16041151123046873,2.703053674316406,4.198473282442748,7.816793893129771,-10.366412213740459,0.0
14.59000039100647,-9.718064538574218,0.5123591552734374,0.44053310546874996,-4.916030534351145,14.229007633587786,-6.3816793893129775,-8.726865051269531,0.4860229370117187,2.8658593872070313,4.534351145038168,10.183206106870228,-9.541984732824428,0.0
14.600000381469727,-8.645462194824217,-1.7956512451171873,-0.46208092041015625,3.9083969465648853,14.595419847328245,-5.129770992366412,-8.722076647949219,0.4525041137695312,2.839523168945312,6.030534351145038,10.931297709923664,-8.274809160305344,0.0
14.610000610351562,-8.913612780761719,0.22744915771484372,0.06464344482421874,16.763358778625953,22.229007633587788,-8.442748091603054,-8.571241943359375,0.4429273071289062,2.683900061035156,6.778625954198473,11.923664122137405,-7.404580152671755,0.0
14.62000060081482,-9.459490759277344,1.3527239379882812,-0.05027823486328125,2.946564885496183,17.893129770992367,-8.732824427480915,-8.90643017578125,0.4333505004882812,2.6958710693359373,7.908396946564886,13.129770992366412,-6.778625954198473,0.0
14.630000352859497,-9.878476049804688,2.0350714111328125,0.2537853759765625,-0.916030534351145,18.12213740458015,-6.916030534351145,-7.821856823730468,1.5921441040039062,2.35589443359375,0.04580152671755725,15.145038167938932,-6.396946564885496,0.0
14.640000820159912,-9.991003527832031,2.389413256835937,0.8355763793945312,-3.954198473282443,20.213740458015266,-7.6183206106870225,-8.578424548339843,0.1484405029296875,2.3870190551757813,0.9007633587786259,16.99236641221374,-5.083969465648855,0.0
14.650001049041748,-10.105925207519531,2.3678654418945313,0.5913678100585937,-19.84732824427481,14.01526717557252,-7.282442748091603,-10.275913525390624,-1.7429788085937499,3.303998291015625,9.770992366412214,17.96946564885496,-2.2290076335877864,0.0
14.660000801086426,-9.418789331054686,0.9888052856445312,0.6703764648437499,-17.31297709923664,16.061068702290076,-5.908396946564886,-8.595183959960938,0.17477672119140625,3.3590649291992185,15.664122137404581,12.15267175572519,-4.870229007633588,0.0
14.670000553131104,-9.617508068847656,0.9911994873046874,0.6057330200195312,-17.46564885496183,16.900763358778626,-6.8396946564885495,-8.858546142578124,-0.3711012573242187,3.1268273681640624,14.259541984732824,13.725190839694656,-5.1603053435114505,0.0
14.68000054359436,-9.394847314453125,0.7445967163085937,0.6057330200195312,-19.00763358778626,16.427480916030536,-6.702290076335878,-8.875305554199219,-0.5674257934570313,3.208230224609375,13.664122137404581,13.648854961832061,-5.32824427480916,0.0
14.690000534057617,-8.932766394042968,-1.2401964599609374,0.3591302490234375,-11.389312977099237,17.61832061068702,-6.122137404580153,-8.616731774902343,-0.4381389038085937,3.0909143432617188,14.50381679389313,12.778625954198473,-5.7251908396946565,0.0
14.700000524520874,-8.075642199707032,-1.936909143066406,-0.016759411621093748,4.0,21.251908396946565,-9.145038167938932,-8.547299926757812,-0.622492431640625,3.076549133300781,15.49618320610687,12.732824427480915,-5.419847328244275,0.0
14.710000276565552,-9.358934289550781,-1.4006079711914061,0.9457096557617187,11.374045801526718,27.450381679389313,-15.083969465648854,-8.59278975830078,-0.9816226806640624,2.8850130004882812,16.931297709923665,13.007633587786259,-7.206106870229007,0.0
14.720000505447388,-9.595960253906249,-0.2442085693359375,1.608903515625,16.900763358778626,26.366412213740457,-18.85496183206107,-8.67658681640625,-1.0797849487304687,2.8514941772460936,15.84732824427481,12.427480916030534,-8.076335877862595,0.0
14.730000495910645,-11.111489904785156,0.39983167724609375,2.789244934082031,15.587786259541986,23.51145038167939,-20.977099236641223,-8.437166650390624,-0.5339069702148437,2.877830395507812,13.053435114503817,12.106870229007633,-10.335877862595419,0.0
14.740000486373901,-11.602301245117188,0.7996633544921875,3.2704794677734372,14.106870229007633,18.931297709923665,-20.061068702290076,-8.061276989746093,-0.023942016601562498,3.6439749267578123,2.4885496183206106,16.748091603053435,-10.0,0.0
14.750000476837158,-12.073958972167969,2.2553379638671873,4.874594580078124,11.114503816793894,11.954198473282442,-17.6793893129771,-8.851363537597656,-0.5003881469726562,3.797203833007812,-0.16793893129770993,17.022900763358777,-6.99236641221374,0.0
14.760000705718994,-13.213598962402344,3.299209887695312,5.633556506347656,3.5572519083969465,1.2671755725190839,-14.381679389312977,-8.05648858642578,-0.6703764648437499,3.229778039550781,1.0534351145038168,11.923664122137405,-3.648854961832061,0.0
